subject,block,trial,SNR,stim,correct_resp,RT,response,status,IsDouble,time_stim,time_resp,volume_stim,volume_stim_global,volume_resp,volume_resp_global,ISI
27,1,1,catch,catch,None,0,None,None,No,19.0824714375561,0,20,20,0,0,14
27,1,2,SNR11,a,b,0,None,None,No,32.090169912116,0,33,33,0,0,13
27,1,3,SNR07,a,b,1.17274911634195,b,HIT,No,46.0942547820747,47.2682175563879,47,47,48,48,14
27,1,4,SNR07,a,b,1.03611323825135,b,HIT,No,59.5998609296785,60.636085925958,60,60,61,61,13.5
27,1,5,SNR09,a,b,1.35602629506866,b,HIT,No,73.6073635425926,74.9637744335265,74,74,75,75,14
27,1,6,SNR09,a,b,1.13660508761313,b,HIT,No,86.6143444279785,87.7509609194721,87,87,88,88,13
27,1,7,SNR11,a,b,0,None,None,No,101.617538369781,0,102,102,0,0,15
27,1,8,catch,catch,None,0,None,None,No,116.621675412493,0,117,117,0,0,15
27,1,9,SNR07,a,b,0.974004284438706,b,HIT,No,131.124075074025,132.099115971192,132,132,133,133,14.5
27,1,10,SNR11,a,b,1.15389736165525,b,HIT,No,145.627080566704,146.781205435774,146,146,147,147,14.5
27,1,11,SNR09,a,b,0,None,None,No,160.129945221461,0,161,161,0,0,14.5
27,1,12,SNR09,a,b,1.02543664032419,b,HIT,No,173.632833824365,174.658462334979,174,174,175,175,13.5
27,1,13,SNR07,a,b,0.981328141526319,b,HIT,No,188.135691066599,189.117182283616,189,189,190,190,14.5
27,1,14,SNR07,a,b,0.943179880818207,b,HIT,No,202.138523505393,203.081924336394,203,203,204,204,14
27,1,15,SNR11,a,b,0,None,None,No,217.14137190962,0,218,218,0,0,15
27,1,16,SNR11,a,b,0,None,None,No,230.144279328927,0,231,231,0,0,13
27,1,17,SNR11,a,b,0,None,None,No,244.147052467543,0,245,245,0,0,14
27,1,18,catch,catch,None,0,None,None,No,257.149670228289,0,258,258,0,0,13
27,1,19,SNR11,a,b,0,None,None,No,271.652536023433,0,272,272,0,0,14.5
27,1,20,SNR11,a,b,1.22932832854895,b,HIT,No,285.655767883138,286.885247883297,286,286,287,287,14
27,1,21,SNR09,a,b,0,None,None,No,300.658509375985,0,301,301,0,0,15
27,1,22,SNR09,a,b,0.919827014538896,b,HIT,No,314.661559628895,315.581593338765,315,315,316,316,14
27,1,23,SNR07,a,b,0.918303171019943,b,HIT,No,327.664760127929,328.583288525587,328,328,329,329,13
27,1,24,SNR11,a,b,0,None,None,No,341.167920428284,0,342,342,0,0,13.5
27,1,25,SNR07,a,b,1.07565619353227,b,HIT,No,354.170854646711,355.246768853038,355,355,356,356,13
27,1,26,SNR07,a,b,1.08174016372504,b,HIT,No,367.673651163281,368.755580631421,368,368,369,369,13.5
27,1,27,SNR09,a,b,1.34724017541521,b,HIT,No,382.17672536434,383.524169669213,383,383,384,384,14.5
27,1,28,SNR11,a,b,0,None,None,No,395.679749958518,0,396,396,0,0,13.5
27,1,29,SNR09,a,b,1.19053745918245,b,HIT,No,409.182850388502,410.373655268678,409,409,411,411,13.5
27,1,30,SNR07,a,b,1.00525348260271,b,HIT,No,424.1858826803,425.191335730809,425,425,426,426,15
27,1,31,SNR09,a,b,0,None,None,No,439.188917537971,0,440,440,0,0,15
27,1,32,SNR07,a,b,0.971718376611534,b,HIT,No,454.191919609486,455.163832992452,455,455,456,456,15
27,1,33,SNR09,a,b,0,None,None,No,467.194911417508,0,468,468,0,0,13
27,2,1,SNR07,a,b,1.11090957920169,b,HIT,No,19.5088764954051,20.6199015388966,20,507,21,508,14.5
27,2,2,SNR07,a,b,1.07968803544827,b,HIT,No,32.5116120012157,33.5914933324362,33,520,34,521,13
27,2,3,SNR07,a,b,0.844613861758262,b,HIT,No,45.5145561980375,46.3593117530102,46,533,47,534,13
27,2,4,SNR11,a,b,1.08624612196763,b,HIT,No,58.5175072371876,59.6040150782107,59,546,60,547,13
27,2,5,SNR11,a,b,0,None,None,No,71.5205346823364,0,72,559,0,0,13
27,2,6,SNR09,a,b,0.893991523496879,b,HIT,No,84.5234284169874,85.4175604933091,85,572,86,573,13
27,2,7,SNR11,a,b,0,None,None,No,99.0263754647794,0,100,587,0,0,14.5
27,2,8,SNR11,a,b,0,None,None,No,114.029293147579,0,115,602,0,0,15
27,2,9,SNR09,a,b,1.08709171970077,b,HIT,No,128.532252169446,129.619522930067,129,616,130,617,14.5
27,2,10,SNR07,a,b,1.1088722759705,b,HIT,No,142.535261083289,143.644328365613,143,630,144,631,14
27,2,11,SNR11,a,b,0.995635449875408,b,HIT,No,156.538110627903,157.533934526901,157,644,158,645,14
27,2,12,SNR07,a,b,0.886392832890124,b,HIT,No,171.541145770671,172.427719069968,172,659,173,660,15
27,2,13,SNR07,a,b,0.89700214791992,b,HIT,No,186.044138148888,186.941347277238,187,674,187,674,14.5
27,2,14,SNR09,a,b,0,None,None,No,199.547171295977,0,200,687,0,0,13.5
27,2,15,SNR09,a,b,0.975660698066349,b,HIT,No,213.050025402144,214.025829504005,214,701,215,702,13.5
27,2,16,SNR11,a,b,0,None,None,No,226.553056553553,0,227,714,0,0,13.5
27,2,17,SNR11,a,b,0,None,None,No,241.555944586264,0,242,729,0,0,15
27,2,18,SNR11,a,b,0,None,None,No,255.559014510868,0,256,743,0,0,14
27,2,19,SNR09,a,b,0,None,None,No,269.561994344816,0,270,757,0,0,14
27,2,20,SNR09,a,b,0,None,None,No,284.564941107511,0,285,772,0,0,15
27,2,21,SNR09,a,b,1.11701407637884,b,HIT,No,299.567936621794,300.685076425955,300,787,301,788,15
27,2,22,SNR07,a,b,0.873698318326205,b,HIT,No,313.070940688988,313.94480635926,314,801,314,801,13.5
27,2,23,catch,catch,None,0,None,None,No,326.074027719412,0,327,814,0,0,13
27,2,24,SNR09,a,b,0.984208191521247,b,HIT,No,340.076886672228,341.061264781567,341,828,342,829,14
27,2,25,SNR11,a,b,0,None,None,No,354.579884752385,0,355,842,0,0,14.5
27,2,26,SNR09,a,b,1.01255681270595,b,HIT,No,369.082860309878,370.095593597633,370,857,371,858,14.5
27,2,27,SNR07,a,b,0,None,None,No,384.085862096296,0,385,872,0,0,15
27,2,28,SNR09,a,b,0,None,None,No,397.088796599819,0,398,885,0,0,13
27,2,29,SNR07,a,b,0.980782180753522,b,HIT,No,410.591751915424,411.572735374666,411,898,412,899,13.5
27,2,30,catch,catch,None,0,None,None,No,424.594466609153,0,425,912,0,0,14
27,2,31,SNR07,a,b,1.09693440887168,b,HIT,No,438.597332404297,439.694471227725,439,926,440,927,14
27,2,32,catch,catch,None,0,None,None,No,453.600212454292,0,454,941,0,0,15
27,2,33,SNR11,a,b,0,None,None,No,467.103117307726,0,468,955,0,0,13.5
27,3,1,catch,catch,None,0,None,None,No,20.0072933517088,0,21,995,0,0,15
27,3,2,SNR11,a,b,1.37856749015918,b,HIT,No,34.0108468008409,35.3896338156985,35,1009,36,1010,14
27,3,3,SNR11,a,b,0,None,None,No,48.0137140214701,0,49,1023,0,0,14
27,3,4,SNR11,a,b,0.977073068654136,b,HIT,No,63.0168284212069,63.9940890836925,64,1038,64,1038,15
27,3,5,SNR07,a,b,0.992336592373249,b,HIT,No,76.0223886681921,77.0152717915325,77,1051,78,1052,13
27,3,6,SNR07,a,b,0.934073312126202,b,HIT,No,89.5250332280565,90.4593363283725,90,1064,91,1065,13.5
27,3,7,SNR09,a,b,0,None,None,No,102.527986547983,0,103,1077,0,0,13
27,3,8,SNR07,a,b,0.903814540974054,b,HIT,No,117.030860040746,117.93484050818,118,1092,118,1092,14.5
27,3,9,SNR09,a,b,1.12838032397303,b,HIT,No,130.033871520462,131.162505580774,131,1105,132,1106,13
27,3,10,SNR07,a,b,0.929220961017563,b,HIT,No,144.036852494798,144.966259909259,145,1119,145,1119,14
27,3,11,SNR07,a,b,0.957036165696991,b,HIT,No,157.539825771515,158.497041833425,158,1132,159,1133,13.5
27,3,12,SNR09,a,b,1.09962886071116,b,HIT,No,172.542811307404,173.642634889374,173,1147,174,1148,15
27,3,13,SNR07,a,b,0,None,None,No,187.545914588357,0,188,1162,0,0,15
27,3,14,SNR09,a,b,0,None,None,No,201.548945169573,0,202,1176,0,0,14
27,3,15,SNR11,a,b,0,None,None,No,215.051969193557,0,216,1190,0,0,13.5
27,3,16,catch,catch,None,0,None,None,No,229.055103264988,0,230,1204,0,0,14
27,3,17,SNR09,a,b,0.935377916042853,b,HIT,No,242.558564627786,243.494241040399,243,1217,244,1218,13.5
27,3,18,SNR11,a,b,0,None,None,No,257.061547597801,0,258,1232,0,0,14.5
27,3,19,SNR07,a,b,0.951784393675553,b,HIT,No,270.064584736248,271.017050796875,271,1245,272,1246,13
27,3,20,SNR09,a,b,0,None,None,No,284.567585382278,0,285,1259,0,0,14.5
27,3,21,SNR11,a,b,1.51335936078976,b,HIT,No,298.070554952734,299.58411388143,299,1273,300,1274,13.5
27,3,22,catch,catch,None,0,None,None,No,311.073396514632,0,312,1286,0,0,13
27,3,23,SNR09,a,b,0,None,None,No,325.576290249283,0,326,1300,0,0,14.5
27,3,24,SNR09,a,b,0,None,None,No,339.079260389933,0,340,1314,0,0,13.5
27,3,25,SNR11,a,b,0,None,None,No,352.082161822203,0,353,1327,0,0,13
27,3,26,SNR11,a,b,0,None,None,No,365.085146502801,0,366,1340,0,0,13
27,3,27,SNR11,a,b,1.66997825850194,b,HIT,No,379.588170811882,381.258346642612,380,1354,382,1356,14.5
27,3,28,SNR07,a,b,0.936768619258146,b,HIT,No,394.091081937451,395.028046988549,395,1369,396,1370,14.5
27,3,29,SNR09,a,b,0.939607330186846,b,HIT,No,408.094106246533,409.03388606041,409,1383,410,1384,14
27,3,30,SNR07,a,b,1.23222491417073,b,HIT,No,422.097087505966,423.329534795805,423,1397,424,1398,14
27,3,31,SNR09,a,b,0,None,None,No,437.100135763196,0,438,1412,0,0,15
27,3,32,SNR07,a,b,0.996575414716062,b,HIT,No,452.103041186825,453.099824722358,453,1427,454,1428,15
27,3,33,SNR11,a,b,0,None,None,No,467.105984528355,0,468,1442,0,0,15
27,4,1,SNR11,a,b,0,None,None,No,18.5071208680178,0,19,1478,0,0,13.5
27,4,2,SNR09,a,b,0,None,None,No,33.5101015572569,0,34,1493,0,0,15
27,4,3,SNR09,a,b,1.06767148157633,b,HIT,No,47.013168915987,48.0809889331043,48,1507,49,1508,13.5
27,4,4,SNR11,a,b,0.922679410123237,b,HIT,No,61.5162063395312,62.4390442635916,62,1521,63,1522,14.5
27,4,5,SNR11,a,b,1.06815985275352,b,HIT,No,74.5191667868826,75.5874731794988,75,1534,76,1535,13
27,4,6,SNR09,a,b,0,None,None,No,88.5221443400546,0,89,1548,0,0,14
27,4,7,SNR07,a,b,0,None,None,No,101.525231370478,0,102,1561,0,0,13
27,4,8,SNR07,a,b,0.875148606815856,b,HIT,No,115.528195524091,116.403530869449,116,1575,117,1576,14
27,4,9,SNR09,a,b,1.06806805151609,b,HIT,No,129.031115772764,130.099320385748,130,1589,131,1590,13.5
27,4,10,SNR11,a,b,0,None,None,No,144.03406909269,0,145,1604,0,0,15
27,4,11,SNR07,a,b,0.953391200424448,b,HIT,No,158.537053773287,159.490709828833,159,1618,160,1619,14.5
27,4,12,SNR07,a,b,1.37982020642266,b,HIT,No,172.040324691283,173.420360145947,173,1632,174,1633,13.5
27,4,13,SNR07,a,b,1.09761892679126,b,HIT,No,185.04328456844,186.14108396164,186,1645,187,1646,13
27,4,14,SNR11,a,b,0,None,None,No,200.046203391628,0,201,1660,0,0,15
27,4,15,catch,catch,None,0,None,None,No,214.048891286238,0,215,1674,0,0,14
27,4,16,SNR11,a,b,0,None,None,No,227.051882524066,0,228,1687,0,0,13
27,4,17,SNR09,a,b,0,None,None,No,240.054849243552,0,241,1700,0,0,13
27,4,18,SNR07,a,b,1.0344944574299,b,HIT,No,254.058059720981,255.092745763601,255,1714,256,1715,14
27,4,19,SNR09,a,b,0,None,None,No,268.561078043026,0,269,1728,0,0,14.5
27,4,20,SNR07,a,b,0.931839291957658,b,HIT,No,283.064043337026,283.996510697695,284,1743,285,1744,14.5
27,4,21,SNR07,a,b,0.990518813838207,b,HIT,No,298.067055957131,299.057896930589,299,1758,300,1759,15
27,4,22,SNR07,a,b,0.933310677624831,b,HIT,No,313.069991886139,314.003484170559,314,1773,315,1774,15
27,4,23,SNR09,a,b,0,None,None,No,326.07293522767,0,327,1786,0,0,13
27,4,24,SNR11,a,b,0,None,None,No,340.075806724754,0,341,1800,0,0,14
27,4,25,SNR07,a,b,1.08264420634441,b,HIT,No,353.578747785509,354.661780293981,354,1813,355,1814,13.5
27,4,26,catch,catch,None,0,None,None,No,366.581802599971,0,367,1826,0,0,13
27,4,27,SNR11,a,b,0,None,None,No,380.584766753583,0,381,1840,0,0,14
27,4,28,SNR09,a,b,1.04785153744342,b,HIT,No,395.087691563808,396.135776595702,396,1855,397,1856,14.5
27,4,29,SNR11,a,b,0,None,None,No,409.590600123504,0,410,1869,0,0,14.5
27,4,30,catch,catch,None,0,None,None,No,424.593345322613,0,425,1884,0,0,15
27,4,31,SNR09,a,b,0.988408525769046,b,HIT,No,438.596291230017,439.584908446797,439,1898,440,1899,14
27,4,32,SNR11,a,b,0,None,None,No,452.099225163346,0,453,1912,0,0,13.5
27,4,33,SNR09,a,b,1.0449150382392,b,HIT,No,467.102122889356,468.147324735188,468,1927,469,1928,15
27,5,1,SNR09,a,b,0.969215509961941,b,HIT,No,20.0079194247427,20.9775109776604,21,1966,21,1966,15
27,5,2,SNR09,a,b,0.96303432168861,b,HIT,No,33.5108795869971,34.4740852519887,34,1979,35,1980,13.5
27,5,3,catch,catch,None,0,None,None,No,48.5136034038302,0,49,1994,0,0,15
27,5,4,SNR11,a,b,0,None,None,No,63.0166989871644,0,64,2009,0,0,14.5
27,5,5,SNR09,a,b,0,None,None,No,77.019665136456,0,78,2023,0,0,14
27,5,6,SNR07,a,b,1.08214471638348,b,HIT,No,90.5225397696074,91.6049544728585,91,2036,92,2037,13.5
27,5,7,SNR07,a,b,0.925903287110486,b,HIT,No,105.02546001828,105.951597655134,106,2051,106,2051,14.5
27,5,8,SNR07,a,b,0,None,None,No,118.528346055312,0,119,2064,0,0,13.5
27,5,9,SNR07,a,b,1.02559600955465,b,HIT,No,131.531274571799,132.557284827308,132,2077,133,2078,13
27,5,10,SNR09,a,b,1.00830943745314,b,HIT,No,146.034314561216,147.042773389501,147,2092,148,2093,14.5
27,5,11,SNR09,a,b,0,None,None,No,160.03721371271,0,161,2106,0,0,14
27,5,12,SNR09,a,b,1.05384541698004,b,HIT,No,174.540118566145,175.594237961351,175,2120,176,2121,14.5
27,5,13,catch,catch,None,0,None,None,No,187.542925346208,0,188,2133,0,0,13
27,5,14,SNR07,a,b,1.22625754865658,b,HIT,No,200.546158916495,201.772666495228,201,2146,202,2147,13
27,5,15,SNR11,a,b,0,None,None,No,214.549173247181,0,215,2160,0,0,14
27,5,16,SNR09,a,b,1.46786243955103,b,HIT,No,227.55208237707,229.02010618153,228,2173,230,2175,13
27,5,17,SNR11,a,b,1.10252772710919,b,HIT,No,242.055028854668,243.157828279229,243,2188,244,2189,14.5
27,5,18,SNR11,a,b,0,None,None,No,257.057879824768,0,258,2203,0,0,15
27,5,19,SNR09,a,b,0,None,None,No,270.560856807746,0,271,2216,0,0,13.5
27,5,20,catch,catch,None,0,None,None,No,284.563681548921,0,285,2230,0,0,14
27,5,21,SNR09,a,b,0.986828233042615,b,HIT,No,299.566684760824,300.553688328528,300,2245,301,2246,15
27,5,22,SNR11,a,b,0,None,None,No,313.069632093713,0,314,2259,0,0,13.5
27,5,23,SNR11,a,b,0,None,None,No,326.572468523865,0,327,2272,0,0,13.5
27,5,24,SNR09,a,b,0,None,None,No,339.575389342732,0,340,2285,0,0,13
27,5,25,SNR07,a,b,1.03877205296521,b,HIT,No,354.078463828887,355.117472227275,355,2300,356,2301,14.5
27,5,26,SNR07,a,b,0,None,None,No,368.081392915567,0,369,2314,0,0,14
27,5,27,SNR07,a,b,0.99121388034655,b,HIT,No,383.08445428726,384.075891398566,384,2329,385,2330,15
27,5,28,SNR11,a,b,0,None,None,No,398.087402760537,0,399,2344,0,0,15
27,5,29,SNR07,a,b,0,None,None,No,413.090374896866,0,414,2359,0,0,15
27,5,30,SNR07,a,b,0.990590943380084,b,HIT,No,427.093298566703,428.084043747566,428,2373,429,2374,14
27,5,31,SNR11,a,b,0,None,None,No,441.096258728958,0,442,2387,0,0,14
27,5,32,SNR11,a,b,1.68611047281229,b,HIT,No,454.099234571548,455.785502417908,455,2400,456,2401,13
27,5,33,SNR11,a,b,0,None,None,No,467.102254319077,0,468,2413,0,0,13
27,6,1,SNR07,a,b,0.919136509579403,b,HIT,No,20.006899917835,20.9262502501726,21,2453,21,2453,15
27,6,2,SNR07,a,b,0.857811572543142,b,HIT,No,35.0099344904091,35.8680690778651,36,2468,36,2468,15
27,6,3,SNR07,a,b,0.902698101082933,b,HIT,No,49.0128889507233,49.9157410041915,50,2482,50,2482,14
27,6,4,SNR11,a,b,0,None,None,No,63.0159508926102,0,64,2496,0,0,14
27,6,5,SNR07,a,b,0.98146498809183,b,HIT,No,76.0189033572454,77.0007777446432,77,2509,78,2510,13
27,6,6,SNR09,a,b,2.16575055494104,b,HIT,No,89.0218583877536,91.187841011661,90,2522,92,2524,13
27,6,7,SNR11,a,b,0,None,None,No,102.024862169851,0,103,2535,0,0,13
27,6,8,SNR09,a,b,0,None,None,No,117.027798669053,0,118,2550,0,0,15
27,6,9,SNR07,a,b,0.995191268733834,b,HIT,No,131.030695824868,132.026025080554,132,2564,133,2565,14
27,6,10,SNR09,a,b,0.947014435601886,b,HIT,No,145.533561334915,146.480764789835,146,2578,147,2579,14.5
27,6,11,catch,catch,None,0,None,None,No,158.53636897027,0,159,2591,0,0,13
27,6,12,SNR07,a,b,1.11863684855962,b,HIT,No,173.039421789052,174.158223138587,174,2606,175,2607,14.5
27,6,13,SNR11,a,b,0,None,None,No,186.042397916739,0,187,2619,0,0,13
27,6,14,SNR11,a,b,0,None,None,No,201.045466986051,0,202,2634,0,0,15
27,6,15,SNR11,a,b,0,None,None,No,216.048428573791,0,217,2649,0,0,15
27,6,16,SNR09,a,b,1.5695967416832,b,HIT,No,230.051288666995,231.621066160182,231,2663,232,2664,14
27,6,17,SNR11,a,b,0,None,None,No,244.554328086218,0,245,2677,0,0,14.5
27,6,18,catch,catch,None,0,None,None,No,258.557070719454,0,259,2691,0,0,14
27,6,19,catch,catch,None,0,None,None,No,273.559909145285,0,274,2706,0,0,15
27,6,20,SNR09,a,b,1.27574696842021,b,HIT,No,287.562861895017,288.838827817942,288,2720,289,2721,14
27,6,21,SNR07,a,b,0,None,None,No,301.065820916883,0,302,2734,0,0,13.5
27,6,22,SNR11,a,b,0,None,None,No,314.568853493778,0,315,2747,0,0,13.5
27,6,23,SNR09,a,b,1.27597989267815,b,HIT,No,328.071741526489,329.347946075611,329,2761,330,2762,13.5
27,6,24,SNR09,a,b,1.13176670625762,b,HIT,No,341.074674604528,342.206679936982,342,2774,343,2775,13
27,6,25,SNR09,a,b,1.29770913148604,b,HIT,No,356.077550378067,357.375437124991,357,2789,358,2790,15
27,6,26,SNR09,a,b,0,None,None,No,369.580446393494,0,370,2802,0,0,13.5
27,6,27,SNR09,a,b,0,None,None,No,384.083461009278,0,385,2817,0,0,14.5
27,6,28,SNR11,a,b,0,None,None,No,398.586381257951,0,399,2831,0,0,14.5
27,6,29,SNR11,a,b,0,None,None,No,412.089365938548,0,413,2845,0,0,13.5
27,6,30,SNR07,a,b,1.09545789145523,b,HIT,No,426.59224427796,427.688130385126,427,2859,428,2860,14.5
27,6,31,SNR11,a,b,0,None,None,No,440.595229813849,0,441,2873,0,0,14
27,6,32,SNR07,a,b,1.06385887926081,b,HIT,No,453.598258399386,454.662319412426,454,2886,455,2887,13
27,6,33,SNR07,a,b,0,None,None,No,467.101164108111,0,468,2900,0,0,13.5
27,0,0,None,None,None,0,None,None,No,0,0,0,0,0,0,0
27,0,0,None,None,None,0,None,None,No,0,0,0,0,0,0,0
27,0,0,None,None,None,0,None,None,No,0,0,0,0,0,0,0
27,0,0,None,None,None,0,None,None,No,0,0,0,0,0,0,0
27,0,0,None,None,None,0,None,None,No,0,0,0,0,0,0,0
27,0,0,None,None,None,0,None,None,No,0,0,0,0,0,0,0
27,0,0,None,None,None,0,None,None,No,0,0,0,0,0,0,0
27,0,0,None,None,None,0,None,None,No,0,0,0,0,0,0,0
27,0,0,None,None,None,0,None,None,No,0,0,0,0,0,0,0
27,0,0,None,None,None,0,None,None,No,0,0,0,0,0,0,0
27,0,0,None,None,None,0,None,None,No,0,0,0,0,0,0,0
27,0,0,None,None,None,0,None,None,No,0,0,0,0,0,0,0
27,0,0,None,None,None,0,None,None,No,0,0,0,0,0,0,0
27,0,0,None,None,None,0,None,None,No,0,0,0,0,0,0,0
27,0,0,None,None,None,0,None,None,No,0,0,0,0,0,0,0
27,0,0,None,None,None,0,None,None,No,0,0,0,0,0,0,0
27,0,0,None,None,None,0,None,None,No,0,0,0,0,0,0,0
27,0,0,None,None,None,0,None,None,No,0,0,0,0,0,0,0
27,0,0,None,None,None,0,None,None,No,0,0,0,0,0,0,0
27,0,0,None,None,None,0,None,None,No,0,0,0,0,0,0,0
27,0,0,None,None,None,0,None,None,No,0,0,0,0,0,0,0
27,0,0,None,None,None,0,None,None,No,0,0,0,0,0,0,0
