subject,block,trial,SNR,stim,correct_resp,RT,response,status,IsDouble,time_stim,time_resp,volume_stim,volume_stim_global,volume_resp,volume_resp_global,ISI
14,1,1,SNR11,a,b,0,None,None,No,20.0802111884611,0,21,21,0,0,15
14,1,2,SNR09,a,b,0,None,None,No,35.0864000743533,0,36,36,0,0,15
14,1,3,SNR11,a,b,1.20527469382068,b,HIT,No,49.0899526681944,50.2964601214855,50,50,51,51,14
14,1,4,SNR09,a,b,0,None,None,No,63.5949090797126,0,64,64,0,0,14.5
14,1,5,SNR09,a,b,1.05515771851788,b,HIT,No,77.1029314244758,78.1578992683841,78,78,79,79,13.5
14,1,6,SNR09,a,b,0.885507036478884,b,HIT,No,92.1058134701495,92.9923220524248,93,93,94,94,15
14,1,7,SNR11,a,b,0.984510964546644,b,HIT,No,105.108523602326,106.09375557721,106,106,107,107,13
14,1,8,SNR09,a,b,1.03849807474035,b,HIT,No,119.111217198876,120.15064069851,120,120,121,121,14
14,1,9,catch,catch,None,0,None,None,No,132.114543140594,0,133,133,0,0,13
14,1,10,SNR09,a,b,0.872979588764792,b,HIT,No,145.617209367832,146.490465785793,146,146,147,147,13.5
14,1,11,SNR11,a,b,0,None,None,No,159.119950005388,0,160,160,0,0,13.5
14,1,12,SNR07,a,b,0.9508874784824,b,HIT,No,173.622749087832,174.573901706534,174,174,175,175,14.5
14,1,13,SNR07,a,b,0.947802443737601,b,HIT,No,187.125469768598,188.073765430163,188,188,189,189,13.5
14,1,14,catch,catch,None,0,None,None,No,201.128233499013,0,202,202,0,0,14
14,1,15,SNR11,a,b,0,None,None,No,215.130856106407,0,216,216,0,0,14
14,1,16,SNR11,a,b,0,None,None,No,228.133591612218,0,229,229,0,0,13
14,1,17,SNR11,a,b,0,None,None,No,243.136266677462,0,244,244,0,0,15
14,1,18,SNR09,a,b,1.09598446563541,b,HIT,No,257.139022425161,258.235171391769,258,258,259,259,14
14,1,19,SNR07,a,b,0.950894035713645,b,HIT,No,271.141731416949,272.092807059458,272,272,273,273,14
14,1,20,SNR07,a,b,1.0536817712964,b,HIT,No,286.144585523116,287.198488814789,287,287,288,288,15
14,1,21,SNR09,a,b,1.49289965896787,b,HIT,No,299.147264294622,300.640310778549,300,300,301,301,13
14,1,22,catch,catch,None,0,None,None,No,314.149978133059,0,315,315,0,0,15
14,1,23,SNR09,a,b,0,None,None,No,327.152592757738,0,328,328,0,0,13
14,1,24,SNR07,a,b,1.06370407158465,b,HIT,No,340.655418354203,341.719330261508,341,341,342,342,13.5
14,1,25,SNR07,a,b,1.11273733613416,b,HIT,No,353.658139320066,354.771109865554,354,354,355,355,13
14,1,26,SNR07,a,b,2.77984609322993,b,HIT,No,367.660863992191,370.440894543186,368,368,371,371,14
14,1,27,SNR07,a,b,0.961845182060642,b,HIT,No,380.663559869517,381.625604619484,381,381,382,382,13
14,1,28,SNR09,a,b,2.58125863487658,b,HIT,No,395.166388031856,397.747793491691,396,396,398,398,14.5
14,1,29,SNR07,a,b,1.08403319897661,b,HIT,No,410.169061386518,411.253286455782,411,411,412,412,15
14,1,30,SNR11,a,b,1.25555354720564,b,HIT,No,424.671813142858,425.927606456649,425,425,426,426,14.5
14,1,31,SNR11,a,b,0,None,None,No,438.174542661631,0,439,439,0,0,13.5
14,1,32,SNR07,a,b,1.19354323695734,b,HIT,No,452.677256785166,453.871070864283,453,453,454,454,14.5
14,1,33,SNR11,a,b,0,None,None,No,467.180008541506,0,468,468,0,0,14.5
14,2,1,SNR09,a,b,1.04049004754779,b,HIT,No,18.50827151955,19.5488473812984,19,505,20,506,13.5
14,2,2,SNR11,a,b,1.72939219028012,b,HIT,No,33.5108405287067,35.24042601476,34,520,36,522,15
14,2,3,SNR07,a,b,0.922357535599076,b,HIT,No,48.5135988422781,49.4362554446401,49,535,50,536,15
14,2,4,SNR07,a,b,0.874227743473966,b,HIT,No,62.516403626662,63.3908178235808,63,549,64,550,14
14,2,5,SNR07,a,b,0.853141683521244,b,HIT,No,76.0191998581357,76.8729299818849,77,563,77,563,13.5
14,2,6,SNR11,a,b,1.0850504251066,b,HIT,No,89.5219892472812,90.6073951883607,90,576,91,577,13.5
14,2,7,SNR09,a,b,0,None,None,No,104.024832519762,0,105,591,0,0,14.5
14,2,8,SNR07,a,b,1.10187742082962,b,HIT,No,117.027648422929,118.129706025069,118,604,119,605,13
14,2,9,SNR09,a,b,0.990873189421109,b,HIT,No,130.030491980506,131.021475787566,131,617,132,618,13
14,2,10,SNR07,a,b,0.804676617313817,b,HIT,No,144.033299330763,144.838430107613,145,631,145,631,14
14,2,11,SNR07,a,b,1.11454114491607,b,HIT,No,158.536075890543,159.65085623185,159,645,160,646,14.5
14,2,12,SNR11,a,b,0,None,None,No,173.038825651204,0,174,660,0,0,14.5
14,2,13,SNR11,a,b,1.61243912466125,b,HIT,No,187.541557165657,189.154249456463,188,674,190,676,14.5
14,2,14,SNR07,a,b,0.94043411151506,b,HIT,No,202.044350261063,202.985063767648,203,689,203,689,14.5
14,2,15,SNR09,a,b,0,None,None,No,217.047132522784,0,218,704,0,0,15
14,2,16,SNR09,a,b,1.0993143987107,b,HIT,No,231.049919060959,232.149398245741,232,718,233,719,14
14,2,17,SNR11,a,b,1.93517378658362,b,HIT,No,244.552691629381,246.488064698775,245,731,247,733,13.5
14,2,18,SNR07,a,b,1.03031949681463,b,HIT,No,259.555388076901,260.585920256086,260,746,261,747,15
14,2,18,SNR07,a,b,8.2270164768961,b,FA,No,0,267.784724958362,0,0,268,754,15
14,2,19,SNR11,a,b,0,None,None,No,272.558078252287,0,273,759,0,0,13
14,2,20,SNR11,a,b,0,None,None,No,285.560739347778,0,286,772,0,0,13
14,2,21,SNR09,a,b,1.30019831348,b,HIT,No,300.063601151564,301.363977365578,301,787,302,788,14.5
14,2,22,SNR07,a,b,1.28509900563949,b,HIT,No,313.066369728628,314.351678565666,314,800,315,801,13
14,2,23,SNR11,a,b,0,None,None,No,327.069111221475,0,328,814,0,0,14
14,2,24,SNR11,a,b,0,None,None,No,341.071863833106,0,342,828,0,0,14
14,2,25,SNR07,a,b,1.07403342135149,b,HIT,No,354.574594207171,355.648826341139,355,841,356,842,13.5
14,2,26,SNR09,a,b,0,None,None,No,368.577415527181,0,369,855,0,0,14
14,2,27,catch,catch,None,0,None,None,No,383.580416173211,0,384,870,0,0,15
14,2,28,SNR09,a,b,0,None,None,No,396.583079549478,0,397,883,0,0,13
14,2,29,catch,catch,None,0,None,None,No,409.586434285994,0,410,896,0,0,13
14,2,30,catch,catch,None,0,None,None,No,423.588504945578,0,424,910,0,0,14
14,2,31,SNR09,a,b,0,None,None,No,437.091356200774,0,438,924,0,0,13.5
14,2,32,SNR09,a,b,2.12475702607298,b,HIT,No,452.094128484099,454.219030909648,453,939,455,941,15
14,2,33,SNR11,a,b,0,None,None,No,467.096942391588,0,468,954,0,0,15
14,3,1,SNR11,a,b,0,None,None,No,20.0072856540895,0,21,993,0,0,15
14,3,2,SNR09,a,b,1.03481804253533,b,HIT,No,34.5117457117133,35.5465760134201,35,1007,36,1008,14.5
14,3,3,SNR07,a,b,0.87365241770749,b,HIT,No,47.5143110146089,48.3881136784414,48,1020,49,1021,13
14,3,4,SNR07,a,b,0.929316468515026,b,HIT,No,62.0172207146926,62.9467139433535,63,1035,63,1035,14.5
14,3,5,SNR07,a,b,0.807307777617098,b,HIT,No,76.020009533644,76.8274726891319,77,1049,77,1049,14
14,3,6,catch,catch,None,8.58015245847855,b,FA,No,90.0228767542732,98.6031312774798,91,1063,99,1071,14
14,3,7,SNR11,a,b,1.10104607794892,b,HIT,No,104.525690091567,105.626997603475,105,1077,106,1078,14.5
14,3,8,SNR09,a,b,5.71687272528288,b,FA,No,118.528442988296,124.245499030955,119,1091,125,1097,14
14,3,9,SNR11,a,b,1.14184802162526,b,HIT,No,133.03125347462,134.173252027467,134,1106,135,1107,14.5
14,3,10,SNR07,a,b,1.09993505490093,b,HIT,No,146.034026043042,147.134105642127,147,1119,148,1120,13
14,3,11,SNR09,a,b,0.917765192962179,b,HIT,No,159.536756702203,160.454761091557,160,1132,161,1133,13.5
14,3,12,SNR07,a,b,0.89172671284723,b,HIT,No,173.039705745674,173.931584130132,174,1146,174,1146,13.5
14,3,13,SNR09,a,b,1.14439137205227,b,HIT,No,188.042546737378,189.187125418166,189,1161,190,1162,15
14,3,14,catch,catch,None,0,None,None,No,201.045130856677,0,202,1174,0,0,13
14,3,15,SNR07,a,b,0.935442062871516,b,HIT,No,216.047919105434,216.983579267517,217,1189,217,1189,15
14,3,16,SNR09,a,b,0,None,None,No,231.050722179236,0,232,1204,0,0,15
14,3,17,SNR11,a,b,1.01046904730356,b,HIT,No,245.053518125613,246.064110334824,246,1218,247,1219,14
14,3,18,SNR11,a,b,1.0232031903488,b,HIT,No,258.056262184333,259.079617901583,259,1231,260,1232,13
14,3,19,SNR11,a,b,1.37312527333597,b,HIT,No,271.559032471979,272.932831429551,272,1244,273,1245,13.5
14,3,20,SNR07,a,b,1.12918543793057,b,HIT,No,286.061706111739,287.191114780626,287,1259,288,1260,14.5
14,3,21,SNR07,a,b,1.06012809978711,b,HIT,No,299.564521444712,300.624914114526,300,1272,301,1273,13.5
14,3,22,SNR09,a,b,1.03597753207578,b,HIT,No,313.56734304982,314.603727415328,314,1286,315,1287,14
14,3,23,SNR09,a,b,1.24301184464093,b,HIT,No,326.5701863223,327.813358676557,327,1299,328,1300,13
14,3,24,SNR07,a,b,1.10388592926574,b,HIT,No,340.573001370176,341.677048664349,341,1313,342,1314,14
14,3,25,SNR09,a,b,1.22187475232204,b,HIT,No,355.075741722636,356.297785537485,356,1328,357,1329,14.5
14,3,26,SNR07,a,b,0.908754131769456,b,HIT,No,370.078455275977,370.987926141628,371,1343,372,1344,15
14,3,27,SNR11,a,b,0,None,None,No,384.081200760183,0,385,1357,0,0,14
14,3,28,SNR11,a,b,0,None,None,No,397.584012671992,0,398,1370,0,0,13.5
14,3,29,SNR11,a,b,0,None,None,No,412.58677412163,0,413,1385,0,0,15
14,3,30,SNR09,a,b,0.925484479603256,b,HIT,No,426.08955068141,427.015221044265,427,1399,428,1400,13.5
14,3,31,SNR09,a,b,1.45361899293493,b,HIT,No,439.092269936691,440.546075668168,440,1412,441,1413,13
14,3,32,SNR11,a,b,0,None,None,No,452.095078142239,0,453,1425,0,0,13
14,3,33,catch,catch,None,0,None,None,No,467.097646866299,0,468,1440,0,0,15
14,4,1,SNR07,a,b,0.827389155707351,b,HIT,No,19.0069640646623,19.8345636219636,20,1478,20,1478,14
14,4,2,SNR07,a,b,0.90943465833152,b,HIT,No,32.509674767033,33.419277062406,33,1491,34,1492,13.5
14,4,3,SNR11,a,b,0,None,None,No,47.0128142553067,0,48,1506,0,0,14.5
14,4,4,SNR07,a,b,0.964022182828558,b,HIT,No,61.5156344349292,62.479847917851,62,1520,63,1521,14.5
14,4,5,SNR11,a,b,0,None,None,No,74.5184118500002,0,75,1533,0,0,13
14,4,6,SNR07,a,b,0.972624129812175,b,HIT,No,89.5212993125171,90.4941084702892,90,1548,91,1549,15
14,4,7,SNR11,a,b,0,None,None,No,103.024071880939,0,104,1562,0,0,13.5
14,4,8,SNR09,a,b,0.919652820264673,b,HIT,No,116.526881226875,117.446662910989,117,1575,118,1576,13.5
14,4,9,SNR11,a,b,0,None,None,No,130.029652654909,0,131,1589,0,0,13.5
14,4,10,SNR11,a,b,0,None,None,No,144.032410683383,0,145,1603,0,0,14
14,4,11,SNR11,a,b,0,None,None,No,159.03511226265,0,160,1618,0,0,15
14,4,12,catch,catch,None,0,None,None,No,172.037780485566,0,173,1631,0,0,13
14,4,13,SNR09,a,b,0,None,None,No,187.040575006457,0,188,1646,0,0,15
14,4,14,SNR09,a,b,10.9381530503379,b,FA,No,202.043360404245,212.98167111323,203,1661,213,1671,15
14,4,15,SNR07,a,b,1.25134722592156,b,HIT,No,215.546064834481,216.797581693123,216,1674,217,1675,13.5
14,4,16,SNR07,a,b,0.939284030177078,b,HIT,No,228.548933480595,229.488375739613,229,1687,230,1688,13
14,4,16,SNR07,a,b,7.95234631988205,b,FA,No,0,236.503420308828,0,0,237,1695,13
14,4,17,SNR09,a,b,1.03709368686941,b,HIT,No,242.55176392371,243.589050621255,243,1701,244,1702,14
14,4,18,SNR07,a,b,1.10374794231211,b,HIT,No,257.054830997343,258.158725764616,258,1716,259,1717,14.5
14,4,19,SNR11,a,b,1.4115877109507,b,HIT,No,272.057536282871,273.469350645944,273,1731,274,1732,15
14,4,20,catch,catch,None,0,None,None,No,287.060073931357,0,288,1746,0,0,15
14,4,21,SNR09,a,b,1.14096136992521,b,HIT,No,301.562732460974,302.703870591046,302,1760,303,1761,14.5
14,4,22,catch,catch,None,0,None,None,No,315.565235042528,0,316,1774,0,0,14
14,4,23,SNR09,a,b,1.69513921001817,b,HIT,No,329.067962565622,330.763275969914,330,1788,331,1789,13.5
14,4,23,SNR09,a,b,5.86305878301209,b,FA,No,0,334.933183524358,0,0,335,1793,13.5
14,4,24,SNR07,a,b,1.06104696745024,b,HIT,No,343.070603989419,344.131914386508,344,1802,345,1803,14
14,4,25,SNR07,a,b,1.03611295315568,b,HIT,No,356.073341205812,357.109644888866,357,1815,358,1816,13
14,4,26,SNR09,a,b,0,None,None,No,369.076019977318,0,370,1828,0,0,13
14,4,27,SNR09,a,b,0,None,None,No,383.578830178545,0,384,1842,0,0,14.5
14,4,28,SNR11,a,b,1.09296870946309,b,HIT,No,398.08158336037,399.174755344001,399,1857,400,1858,14.5
14,4,29,SNR09,a,b,1.29197240945177,b,HIT,No,411.084317725793,412.376480865144,412,1870,413,1871,13
14,4,30,SNR07,a,b,0.949009544478031,b,HIT,No,426.086975400119,427.03618679328,427,1885,428,1886,15
14,4,31,SNR11,a,b,0,None,None,No,439.089606275327,0,440,1898,0,0,13
14,4,32,SNR11,a,b,0,None,None,No,453.092400511122,0,454,1912,0,0,14
14,4,33,SNR09,a,b,0.955038205849633,b,HIT,No,467.095110358202,468.050362671906,468,1926,469,1927,14
14,5,1,SNR07,a,b,1.00726940356071,b,HIT,No,18.5079490748317,19.5154206121717,19,1961,20,1962,13.5
14,5,2,catch,catch,None,0,None,None,No,31.5105252114137,0,32,1974,0,0,13
14,5,3,SNR09,a,b,1.03641629637241,b,HIT,No,45.0132222291279,46.0498141452592,46,1988,47,1989,13.5
14,5,4,SNR07,a,b,1.11545117457172,b,HIT,No,59.0160033504601,60.1316341361475,60,2002,61,2003,14
14,5,5,SNR11,a,b,0.847294914039594,b,HIT,No,73.5189749165949,74.3664232128266,74,2016,75,2017,14.5
14,5,5,SNR11,a,b,11.0759036577383,b,FA,No,0,84.5970367586979,0,0,85,2027,14.5
14,5,6,SNR07,a,b,0.994934966520304,b,HIT,No,87.5217788456878,88.517031125181,88,2030,89,2031,14
14,5,7,SNR11,a,b,1.08792220729083,b,HIT,No,102.524522049118,103.612814597423,103,2045,104,2046,15
14,5,8,SNR11,a,b,0,None,None,No,117.02728977089,0,118,2060,0,0,14.5
14,5,9,SNR07,a,b,0.954813549406026,b,HIT,No,131.530044093104,132.485089996573,132,2074,133,2075,14.5
14,5,10,SNR09,a,b,1.08685423389034,b,HIT,No,145.532824644242,146.619812873727,146,2088,147,2089,14
14,5,11,SNR07,a,b,1.07275362087603,b,HIT,No,158.535681316281,159.608600008325,159,2101,160,2102,13
14,5,12,SNR11,a,b,1.74931448423922,b,HIT,No,171.53873356487,173.288221958286,172,2114,174,2116,13
14,5,13,SNR07,a,b,0.964185543414715,b,HIT,No,186.541632716364,187.505991883858,187,2129,188,2130,15
14,5,14,SNR07,a,b,0.997097997536912,b,HIT,No,201.044425241577,202.041741908519,202,2144,203,2145,14.5
14,5,15,SNR09,a,b,0.890985175527021,b,HIT,No,216.047139650209,216.938363737029,217,2159,217,2159,15
14,5,16,SNR09,a,b,1.1403404286375,b,HIT,No,230.049905946496,231.190376094274,231,2173,232,2174,14
14,5,17,SNR07,a,b,0.940332331882018,b,HIT,No,243.052580441547,243.993013127577,244,2186,245,2187,13
14,5,18,SNR07,a,b,0.941851328752819,b,HIT,No,258.055358711909,258.998077305765,259,2201,260,2202,15
14,5,19,SNR11,a,b,1.21391455870616,b,HIT,No,271.55808937107,272.772210054915,272,2214,273,2215,13.5
14,5,20,SNR09,a,b,1.01289436756815,b,HIT,No,286.060791520531,287.073865214116,287,2229,288,2230,14.5
14,5,21,catch,catch,None,0,None,None,No,300.063337721927,0,301,2243,0,0,14
14,5,22,SNR11,a,b,0,None,None,No,313.566558177751,0,314,2256,0,0,13.5
14,5,23,SNR11,a,b,1.39653230804834,b,HIT,No,327.56928912201,328.966015866219,328,2270,329,2271,14
14,5,24,SNR11,a,b,0.486499231094058,b,HIT,No,341.572086778968,342.058769612536,342,2284,343,2285,14
14,5,25,SNR11,a,b,1.29947901372361,b,HIT,No,354.574799191921,355.874471216321,355,2297,356,2298,13
14,5,26,SNR09,a,b,3.07442571483807,b,FA,No,368.077549237679,371.15216539732,369,2311,372,2314,13.5
14,5,27,catch,catch,None,0,None,None,No,383.080147896925,0,384,2326,0,0,15
14,5,28,SNR09,a,b,2.12939384384299,b,HIT,No,396.082962944801,398.212548658932,397,2339,399,2341,13
14,5,29,SNR09,a,b,1.07352680396434,b,HIT,No,410.585700161194,411.659395172395,411,2353,412,2354,14.5
14,5,30,SNR09,a,b,1.32838927601915,b,HIT,No,423.58842369293,424.917057867281,424,2366,425,2367,13
14,5,31,SNR09,a,b,1.1252884468995,b,HIT,No,438.591199112322,439.716722479158,439,2381,440,2382,15
14,5,32,SNR07,a,b,1.20639483997184,b,HIT,No,452.093959706669,453.300527030333,453,2395,454,2396,13.5
14,5,33,SNR11,a,b,6.4076639208015,b,FA,No,467.096635342108,473.504468325437,468,2410,474,2416,15
14,6,1,catch,catch,None,0,None,None,No,20.0067436846736,0,21,2453,0,0,15
14,6,2,SNR11,a,b,1.16453005464246,b,HIT,No,34.5093699983293,35.6740351889537,35,2467,36,2468,14.5
14,6,3,SNR09,a,b,1.22240645824422,b,HIT,No,48.0120772795359,49.2346764633602,49,2481,50,2482,13.5
14,6,4,SNR07,a,b,1.20728890419559,b,HIT,No,62.0148994548375,63.2223833653877,63,2495,64,2496,14
14,6,5,SNR07,a,b,0.98809007240925,b,HIT,No,75.0177957553617,76.0063850326351,76,2508,77,2509,13
14,6,6,SNR07,a,b,1.1991376955848,b,HIT,No,90.0204348983829,91.2197835657539,91,2523,92,2524,15
14,6,7,SNR09,a,b,1.04032953793285,b,HIT,No,104.023141324298,105.063610559765,105,2537,106,2538,14
14,6,8,SNR09,a,b,1.00410967339849,b,HIT,No,118.525894221027,119.530249933145,119,2551,120,2552,14.5
14,6,9,catch,catch,None,0,None,None,No,131.528447549848,0,132,2564,0,0,13
14,6,10,SNR11,a,b,0.792387795796458,b,HIT,No,144.531138010331,145.323708268212,145,2577,146,2578,13
14,6,11,SNR09,a,b,1.0624425173155,b,HIT,No,159.533800531307,160.596418383283,160,2592,161,2593,15
14,6,12,SNR11,a,b,1.25330128082715,b,HIT,No,173.536609592146,174.790176013192,174,2606,175,2607,14
14,6,13,SNR07,a,b,1.5963117570027,b,HIT,No,187.039322290196,188.635837321365,188,2620,189,2621,13.5
14,6,14,SNR07,a,b,0.884419106288988,b,HIT,No,202.042046107029,202.926641973464,203,2635,203,2635,15
14,6,15,SNR09,a,b,1.1943420787793,b,HIT,No,216.044689526505,217.23921321208,217,2649,218,2650,14
14,6,16,SNR09,a,b,1.2733943478961,b,HIT,No,229.0473788466,230.320975043178,230,2662,231,2663,13
14,6,17,SNR07,a,b,1.12233227600518,b,HIT,No,242.550126896679,243.672632226568,243,2675,244,2676,13.5
14,6,18,SNR09,a,b,0,None,None,No,255.552826195169,0,256,2688,0,0,13
14,6,19,SNR09,a,b,1.24528492310128,b,HIT,No,270.055588500099,271.301093518091,271,2703,272,2704,14.5
14,6,20,SNR11,a,b,0,None,None,No,284.058328852559,0,285,2717,0,0,14
14,6,21,SNR09,a,b,1.29332006301775,b,HIT,No,297.561043831384,298.854581993615,298,2730,299,2731,13.5
14,6,22,catch,catch,None,0,None,None,No,311.563592598654,0,312,2744,0,0,14
14,6,23,SNR09,a,b,0,None,None,No,326.566315560196,0,327,2759,0,0,15
14,6,24,SNR07,a,b,1.12150634996578,b,HIT,No,341.068986348985,342.190690841373,342,2774,343,2775,14.5
14,6,25,SNR07,a,b,1.43365650029773,b,HIT,No,354.071683651796,355.505529456508,355,2787,356,2788,13
14,6,26,SNR11,a,b,0,None,None,No,367.57443312736,0,368,2800,0,0,13.5
14,6,27,SNR11,a,b,1.31642803096656,b,HIT,No,382.577178326469,383.893841277371,383,2815,384,2816,15
14,6,28,SNR11,a,b,0,None,None,No,395.57987277831,0,396,2828,0,0,13
14,6,29,SNR07,a,b,1.07449100205304,b,HIT,No,410.082489683765,411.157300564663,411,2843,412,2844,14.5
14,6,30,SNR11,a,b,0,None,None,No,425.085312999454,0,426,2858,0,0,15
14,6,31,SNR11,a,b,1.22851466168322,b,HIT,No,439.588002319549,440.816712557782,440,2872,441,2873,14.5
14,6,32,SNR07,a,b,0,None,None,No,453.590788857725,0,454,2886,0,0,14
14,6,33,SNR11,a,b,0,None,None,No,467.093497564416,0,468,2900,0,0,13.5
14,0,0,None,None,None,0,None,None,No,0,0,0,0,0,0,0
14,0,0,None,None,None,0,None,None,No,0,0,0,0,0,0,0
14,0,0,None,None,None,0,None,None,No,0,0,0,0,0,0,0
14,0,0,None,None,None,0,None,None,No,0,0,0,0,0,0,0
14,0,0,None,None,None,0,None,None,No,0,0,0,0,0,0,0
14,0,0,None,None,None,0,None,None,No,0,0,0,0,0,0,0
14,0,0,None,None,None,0,None,None,No,0,0,0,0,0,0,0
14,0,0,None,None,None,0,None,None,No,0,0,0,0,0,0,0
14,0,0,None,None,None,0,None,None,No,0,0,0,0,0,0,0
14,0,0,None,None,None,0,None,None,No,0,0,0,0,0,0,0
14,0,0,None,None,None,0,None,None,No,0,0,0,0,0,0,0
14,0,0,None,None,None,0,None,None,No,0,0,0,0,0,0,0
14,0,0,None,None,None,0,None,None,No,0,0,0,0,0,0,0
14,0,0,None,None,None,0,None,None,No,0,0,0,0,0,0,0
14,0,0,None,None,None,0,None,None,No,0,0,0,0,0,0,0
14,0,0,None,None,None,0,None,None,No,0,0,0,0,0,0,0
14,0,0,None,None,None,0,None,None,No,0,0,0,0,0,0,0
14,0,0,None,None,None,0,None,None,No,0,0,0,0,0,0,0
