subject,block,trial,SNR,stim,correct_resp,RT,response,status,IsDouble,time_stim,time_resp,volume_stim,volume_stim_global,volume_resp,volume_resp_global,ISI
5,1,1,SNR09,a,b,0,None,None,No,19.0905817440661,0,20,20,0,0,14
5,1,2,SNR07,a,b,1.00794346121438,b,HIT,No,33.0967969279885,34.1059754431811,34,34,35,35,14
5,1,3,catch,catch,None,0,None,None,No,46.101437218517,0,47,47,0,0,13
5,1,4,SNR07,a,b,0.999263871335643,b,HIT,No,60.1054086640234,61.1053633330948,61,61,62,62,14
5,1,5,SNR07,a,b,0.896509775086088,b,HIT,No,73.6127869141298,74.5095983252075,74,74,75,75,13.5
5,1,6,SNR11,a,b,0,None,None,No,86.6172401789403,0,87,87,0,0,13
5,1,7,SNR11,a,b,1.80395599307667,b,HIT,No,101.620106005949,103.424388438732,102,102,104,104,15
5,1,8,SNR09,a,b,1.14088795591488,b,HIT,No,116.623026001992,117.765068613635,117,117,118,118,15
5,1,9,SNR07,a,b,1.10002882362824,b,HIT,No,130.125808722298,131.226134335213,131,131,132,132,13.5
5,1,10,SNR07,a,b,0,None,None,No,143.128572198342,0,144,144,0,0,13
5,1,11,SNR11,a,b,0,None,None,No,156.631550212271,0,157,157,0,0,13.5
5,1,12,SNR09,a,b,0,None,None,No,171.634446830099,0,172,172,0,0,15
5,1,13,SNR07,a,b,0.996079302325597,b,HIT,No,186.137227839804,187.133441424315,187,187,188,188,14.5
5,1,14,SNR11,a,b,0,None,None,No,200.140196017778,0,201,201,0,0,14
5,1,15,SNR09,a,b,1.14289106977776,b,HIT,No,213.143045594076,214.286169590702,214,214,215,215,13
5,1,16,SNR11,a,b,1.00373595275778,b,HIT,No,227.646052118024,228.650026699632,228,228,229,229,14.5
5,1,17,SNR09,a,b,1.03685290455905,b,HIT,No,242.148886441462,243.185919529334,243,243,244,244,14.5
5,1,18,catch,catch,None,0,None,None,No,256.152723034584,0,257,257,0,0,14
5,1,19,catch,catch,None,0,None,None,No,271.154952517991,0,272,272,0,0,15
5,1,20,SNR11,a,b,1.19051648463574,b,HIT,No,286.15774022755,287.348469967119,287,287,288,288,15
5,1,21,SNR07,a,b,0,None,None,No,299.16044924946,0,300,300,0,0,13
5,1,22,SNR07,a,b,1.07290524781092,b,HIT,No,314.1632075937,315.236244557794,315,315,316,316,15
5,1,23,SNR11,a,b,0,None,None,No,328.665968361293,0,329,329,0,0,14.5
5,1,24,SNR11,a,b,1.00678338858052,b,HIT,No,341.668982440395,342.675923489375,342,342,343,343,13
5,1,25,SNR09,a,b,1.06711201215512,b,HIT,No,354.671679773197,355.738958568957,355,355,356,356,13
5,1,26,SNR11,a,b,0,None,None,No,368.674547025707,0,369,369,0,0,14
5,1,27,SNR07,a,b,0.865024451617501,b,HIT,No,383.17723081625,384.042586269176,384,384,385,385,14.5
5,1,28,SNR09,a,b,1.07021618291401,b,HIT,No,397.179962646174,398.250383531017,398,398,399,399,14
5,1,29,SNR09,a,b,0,None,None,No,410.682848857846,0,411,411,0,0,13.5
5,1,30,SNR11,a,b,0,None,None,No,424.185864219899,0,425,425,0,0,13.5
5,1,31,SNR07,a,b,1.85801127229024,b,HIT,No,439.188856916488,441.047043240289,440,440,442,442,15
5,1,32,SNR09,a,b,0,None,None,No,452.691784467685,0,453,453,0,0,13.5
5,1,33,SNR09,a,b,0,None,None,No,467.194668683655,0,468,468,0,0,14.5
5,2,1,SNR07,a,b,0.997471161404974,b,HIT,No,19.508372679534,20.5060029268384,20,505,21,506,14.5
5,2,2,SNR09,a,b,0,None,None,No,33.5109171986398,0,34,519,0,0,14
5,2,3,SNR11,a,b,9.90463227921282,b,FA,No,47.5137280013137,57.4185461658445,48,533,58,543,14
5,2,4,SNR09,a,b,1.05467423170376,b,HIT,No,62.5166554099612,63.5714756129583,63,548,64,549,15
5,2,5,SNR07,a,b,1.05259128979014,b,HIT,No,77.5194927269519,78.5723537215124,78,563,79,564,15
5,2,6,SNR11,a,b,0,None,None,No,90.5223634006635,0,91,576,0,0,13
5,2,7,SNR11,a,b,0,None,None,No,104.02521055361,0,105,590,0,0,13.5
5,2,8,SNR11,a,b,1.11858485393896,b,HIT,No,118.028055568306,119.14693350523,119,604,120,605,14
5,2,9,SNR11,a,b,0,None,None,No,131.030810776445,0,132,617,0,0,13
5,2,10,SNR11,a,b,1.22873929555681,b,HIT,No,144.533772824764,145.762695724837,145,630,146,631,13.5
5,2,11,SNR09,a,b,0,None,None,No,158.036644211226,0,159,644,0,0,13.5
5,2,12,SNR11,a,b,0,None,None,No,172.539431208035,0,173,658,0,0,14.5
5,2,13,SNR09,a,b,0,None,None,No,187.042238161857,0,188,673,0,0,14.5
5,2,14,catch,catch,None,0,None,None,No,202.045205199429,0,203,688,0,0,15
5,2,15,SNR09,a,b,1.16487628505274,b,HIT,No,215.047856346002,216.213116946098,216,701,217,702,13
5,2,16,SNR09,a,b,0,None,None,No,230.050707062701,0,231,716,0,0,15
5,2,17,catch,catch,None,0,None,None,No,243.053441743627,0,244,729,0,0,13
5,2,18,catch,catch,None,0,None,None,No,257.0560917498,0,258,743,0,0,14
5,2,19,SNR11,a,b,0,None,None,No,272.058852659942,0,273,758,0,0,15
5,2,20,SNR09,a,b,0,None,None,No,285.561643933253,0,286,771,0,0,13.5
5,2,21,SNR07,a,b,1.00046043678958,b,HIT,No,300.064444899971,301.065151663317,301,786,302,787,14.5
5,2,22,SNR07,a,b,0.967539063714867,b,HIT,No,314.067225482026,315.03508214734,315,800,316,801,14
5,2,23,SNR09,a,b,1.09346011548223,b,HIT,No,328.570255669288,329.664091261708,329,814,330,815,14.5
5,2,24,SNR09,a,b,0,None,None,No,342.573124917499,0,343,828,0,0,14
5,2,25,SNR11,a,b,0,None,None,No,357.075913054709,0,358,843,0,0,14.5
5,2,26,SNR11,a,b,0,None,None,No,372.078697057966,0,373,858,0,0,15
5,2,27,SNR07,a,b,0.947604859133207,b,HIT,No,385.081627887815,386.029417206765,386,871,387,872,13
5,2,28,SNR07,a,b,0.979601082126464,b,HIT,No,398.584428569433,399.564262863506,399,884,400,885,13.5
5,2,29,SNR09,a,b,0,None,None,No,411.587294681542,0,412,897,0,0,13
5,2,30,SNR07,a,b,0,None,None,No,426.590459863739,0,427,912,0,0,15
5,2,31,SNR07,a,b,1.2690339294877,b,HIT,No,439.593571447103,440.862857690249,440,925,441,926,13
5,2,32,SNR07,a,b,0,None,None,No,453.596436133711,0,454,939,0,0,14
5,2,33,SNR07,a,b,0.908209431172509,b,HIT,No,467.099152425675,468.007838544347,468,953,469,954,13.5
5,3,1,catch,catch,None,0,None,None,No,19.0062103372193,0,20,1040,0,0,14
5,3,2,SNR09,a,b,0.91672480334455,b,HIT,No,33.5112142730273,34.4281272424911,34,1054,35,1055,14.5
5,3,3,SNR11,a,b,0,None,None,No,46.5140111057924,0,47,1067,0,0,13
5,3,4,SNR09,a,b,0.977566322144412,b,HIT,No,59.5169077236205,60.4946433952694,60,1080,61,1081,13
5,3,5,SNR09,a,b,1.07546687292779,b,HIT,No,73.0198104711024,74.0955938052293,74,1094,75,1095,13.5
5,3,6,SNR07,a,b,0.826608342773397,b,HIT,No,86.0226121505705,86.8494123657641,87,1107,87,1107,13
5,3,7,catch,catch,None,0,None,None,No,99.0258297912012,0,100,1120,0,0,13
5,3,8,SNR09,a,b,0,None,None,No,112.528783856715,0,113,1133,0,0,13.5
5,3,9,SNR09,a,b,2.31203901082699,b,HIT,No,126.531719818368,128.843985483839,127,1147,129,1149,14
5,3,10,SNR11,a,b,0,None,None,No,141.534625274302,0,142,1162,0,0,15
5,3,11,SNR07,a,b,1.21728282992626,b,HIT,No,156.537478842003,157.754922468432,157,1177,158,1178,15
5,3,12,SNR07,a,b,1.02401398815346,b,HIT,No,170.540416229157,171.564571627001,171,1191,172,1192,14
5,3,13,SNR07,a,b,0,None,None,No,184.543547199333,0,185,1205,0,0,14
5,3,14,SNR11,a,b,0,None,None,No,199.546802188087,0,200,1220,0,0,15
5,3,15,SNR07,a,b,0.980285607660335,b,HIT,No,214.549878704128,215.53032738909,215,1235,216,1236,15
5,3,16,SNR07,a,b,0,None,None,No,227.55282806549,0,228,1248,0,0,13
5,3,17,SNR11,a,b,0,None,None,No,242.055843997743,0,243,1263,0,0,14.5
5,3,18,SNR07,a,b,1.06874934248845,b,HIT,No,256.558938617646,257.627841914231,257,1277,258,1278,14.5
5,3,19,SNR09,a,b,1.07460957668445,b,HIT,No,271.06198733642,272.136725208187,272,1292,273,1293,14.5
5,3,20,SNR09,a,b,0,None,None,No,285.064806121899,0,286,1306,0,0,14
5,3,21,SNR07,a,b,0,None,None,No,299.567478223336,0,300,1320,0,0,14.5
5,3,22,SNR09,a,b,0,None,None,No,314.570289026009,0,315,1335,0,0,15
5,3,23,SNR11,a,b,0,None,None,No,327.573012017828,0,328,1348,0,0,13
5,3,24,SNR11,a,b,0,None,None,No,342.075711773982,0,343,1363,0,0,14.5
5,3,25,SNR07,a,b,0,None,None,No,355.57848223498,0,356,1376,0,0,13.5
5,3,26,SNR11,a,b,3.45813717252895,b,FA,No,369.581454404356,373.03972500377,370,1390,374,1394,14
5,3,27,SNR11,a,b,0,None,None,No,383.084375683349,0,384,1404,0,0,13.5
5,3,28,SNR07,a,b,1.10015455280882,b,HIT,No,396.58711848963,397.687470331763,397,1417,398,1418,13.5
5,3,29,SNR09,a,b,0,None,None,No,411.590084101702,0,412,1432,0,0,15
5,3,30,SNR11,a,b,0,None,None,No,425.093006235996,0,426,1446,0,0,13.5
5,3,31,catch,catch,None,0,None,None,No,440.095700717797,0,441,1461,0,0,15
5,3,32,SNR09,a,b,0,None,None,No,453.098645802655,0,454,1474,0,0,13
5,3,33,SNR11,a,b,0,None,None,No,467.101606568024,0,468,1488,0,0,14
5,4,1,SNR07,a,b,0.842844512921147,b,HIT,No,19.0068540934256,19.84973852037,20,1526,20,1526,14
5,4,2,SNR09,a,b,1.09880545875785,b,HIT,No,32.009732179742,33.1086935882965,33,1539,34,1540,13
5,4,2,SNR09,a,b,7.99303528770542,b,FA,No,0,40.0057524663304,0,0,41,1547,13
5,4,3,SNR11,a,b,0.978551628362766,b,HIT,No,47.0128169636888,47.9915484902663,48,1554,48,1554,15
5,4,3,SNR11,a,b,10.9525031653247,b,FA,No,0,57.9677913773731,0,0,58,1564,15
5,4,4,SNR11,a,b,1.01335751363149,b,HIT,No,61.5158203515342,62.5293828521935,62,1568,63,1569,14.5
5,4,5,SNR09,a,b,0.86992988530983,b,HIT,No,76.019122239268,76.8893765685855,77,1583,77,1583,14.5
5,4,6,catch,catch,None,0,None,None,No,91.0219692496648,0,92,1598,0,0,15
5,4,7,SNR09,a,b,0.925606244149094,b,HIT,No,104.525206134558,105.450992847122,105,1611,106,1612,13.5
5,4,8,SNR11,a,b,0,None,None,No,119.028244874825,0,120,1626,0,0,14.5
5,4,9,SNR11,a,b,0.990369030820148,b,HIT,No,132.03123158431,133.021733471816,133,1639,134,1640,13
5,4,10,SNR07,a,b,0.993311264679505,b,HIT,No,145.034078024507,146.027575744703,146,1652,147,1653,13
5,4,11,SNR07,a,b,0.968289447388088,b,HIT,No,158.037019688163,159.005484187061,159,1665,160,1666,13
5,4,12,SNR09,a,b,1.12818560249798,b,HIT,No,172.039978742931,173.16834110754,173,1679,174,1680,14
5,4,13,SNR07,a,b,1.42304162548317,b,HIT,No,185.542902017625,186.966168302049,186,1692,187,1693,13.5
5,4,14,catch,catch,None,0,None,None,No,199.545708258696,0,200,1706,0,0,14
5,4,15,SNR07,a,b,0,None,None,No,214.548649352153,0,215,1721,0,0,15
5,4,16,SNR11,a,b,1.05727719634524,b,HIT,No,229.551527153369,230.608950606109,230,1736,231,1737,15
5,4,17,SNR11,a,b,0,None,None,No,243.054499465295,0,244,1750,0,0,13.5
5,4,18,SNR09,a,b,1.0418247665948,b,HIT,No,256.057441984252,257.099527047312,257,1763,258,1764,13
5,4,19,SNR11,a,b,0,None,None,No,269.560446797598,0,270,1776,0,0,13.5
5,4,20,SNR07,a,b,0,None,None,No,283.063327592366,0,284,1790,0,0,13.5
5,4,21,catch,catch,None,0,None,None,No,296.066083940906,0,297,1803,0,0,13
5,4,22,SNR09,a,b,0,None,None,No,311.069050978478,0,312,1818,0,0,15
5,4,23,SNR07,a,b,1.00460750400816,b,HIT,No,325.572023005304,326.576861725557,326,1832,327,1833,14.5
5,4,24,SNR07,a,b,0,None,None,No,339.574950699051,0,340,1846,0,0,14
5,4,25,SNR09,a,b,1.0972496670729,b,HIT,No,353.078096636987,354.175569252402,354,1860,355,1861,13.5
5,4,26,SNR09,a,b,0,None,None,No,368.081156332118,0,369,1875,0,0,15
5,4,27,SNR11,a,b,0,None,None,No,382.084554726262,0,383,1889,0,0,14
5,4,28,SNR11,a,b,0,None,None,No,396.088081985689,0,397,1903,0,0,14
5,4,29,SNR07,a,b,10.0207401827865,b,FA,No,410.591083377833,420.611995761131,411,1917,421,1927,14.5
5,4,30,SNR07,a,b,1.1329336608942,b,HIT,No,425.593896746408,426.726961268285,426,1932,427,1933,15
5,4,31,SNR09,a,b,1.16065252588669,b,HIT,No,439.59686292868,440.757925713727,440,1946,441,1947,14
5,4,32,SNR09,a,b,0.993583250252414,b,HIT,No,454.09985662312,455.093638303095,455,1961,456,1962,14.5
5,4,33,SNR11,a,b,0.994660643827956,b,HIT,No,467.102706199418,468.097552158365,468,1974,469,1975,13
5,5,1,SNR09,a,b,0,None,None,No,20.0076449613247,0,21,2015,0,0,15
5,5,2,catch,catch,None,0,None,None,No,34.0103046609033,0,35,2029,0,0,14
5,5,3,SNR09,a,b,1.14473481264213,b,HIT,No,48.5132852407343,49.658219053302,49,2043,50,2044,14.5
5,5,4,SNR11,a,b,0,None,None,No,63.5161989645732,0,64,2058,0,0,15
5,5,5,SNR09,a,b,1.08602156668712,b,HIT,No,77.5189863890323,78.6051804413294,78,2072,79,2073,14
5,5,5,SNR09,a,b,11.0277066056842,b,FA,No,0,88.5488985297099,0,0,89,2083,14
5,5,6,SNR11,a,b,1.21874852995097,b,HIT,No,91.02185064799,92.2408272580861,92,2086,93,2087,13.5
5,5,7,SNR11,a,b,0,None,None,No,105.024604430628,0,106,2100,0,0,14
5,5,8,SNR07,a,b,0.91869598599078,b,HIT,No,119.02763362004,119.946681419651,120,2114,120,2114,14
5,5,9,SNR09,a,b,0.89568840146967,b,HIT,No,132.530751333057,133.42665127886,133,2127,134,2128,13.5
5,5,10,SNR07,a,b,0.994263214179227,b,HIT,No,147.533785939372,148.528342236537,148,2142,149,2143,15
5,5,11,SNR11,a,b,0,None,None,No,160.536587903941,0,161,2155,0,0,13
5,5,12,SNR07,a,b,1.05102181330221,b,HIT,No,173.539855437103,174.591085658634,174,2168,175,2169,13
5,5,13,SNR09,a,b,0,None,None,No,187.042819481123,0,188,2182,0,0,13.5
5,5,14,SNR09,a,b,0,None,None,No,201.545686876183,0,202,2196,0,0,14.5
5,5,15,SNR11,a,b,0,None,None,No,216.548592047016,0,217,2211,0,0,15
5,5,16,catch,catch,None,0,None,None,No,229.551492371147,0,230,2224,0,0,13
5,5,17,SNR09,a,b,0,None,None,No,242.554466536224,0,243,2237,0,0,13
5,5,18,SNR11,a,b,0,None,None,No,256.057514969898,0,257,2251,0,0,13.5
5,5,19,SNR11,a,b,1.16357594313013,b,HIT,No,270.560479584119,271.724303564408,271,2265,272,2266,14.5
5,5,20,SNR09,a,b,0,None,None,No,285.563517041436,0,286,2280,0,0,15
5,5,21,SNR11,a,b,0,None,None,No,299.566468113398,0,300,2294,0,0,14
5,5,22,SNR07,a,b,1.09218201137628,b,HIT,No,313.069531942482,314.161874180159,314,2308,315,2309,13.5
5,5,23,catch,catch,None,0,None,None,No,328.072308533134,0,329,2323,0,0,15
5,5,24,SNR07,a,b,0,None,None,No,343.075262170998,0,344,2338,0,0,15
5,5,25,SNR09,a,b,1.00916711118407,b,HIT,No,356.07797432901,357.08732333411,357,2351,358,2352,13
5,5,26,SNR07,a,b,0,None,None,No,369.58076446192,0,370,2364,0,0,13.5
5,5,27,SNR07,a,b,0,None,None,No,384.083822874101,0,385,2379,0,0,14.5
5,5,28,SNR07,a,b,0,None,None,No,398.58680117313,0,399,2393,0,0,14.5
5,5,29,SNR09,a,b,0,None,None,No,412.589923590301,0,413,2407,0,0,14
5,5,30,SNR11,a,b,0,None,None,No,425.592709874359,0,426,2420,0,0,13
5,5,31,SNR07,a,b,0,None,None,No,438.59554804665,0,439,2433,0,0,13
5,5,32,SNR07,a,b,0,None,None,No,452.598421856464,0,453,2447,0,0,14
5,5,33,SNR11,a,b,0,None,None,No,467.101142139831,0,468,2462,0,0,14.5
5,6,1,SNR09,a,b,0,None,None,No,18.5067587274154,0,19,2499,0,0,13.5
5,6,2,SNR09,a,b,0,None,None,No,32.0096760150065,0,33,2513,0,0,13.5
5,6,3,SNR11,a,b,0,None,None,No,46.0126593032893,0,47,2527,0,0,14
5,6,4,SNR07,a,b,1.1255504215369,b,HIT,No,59.5155389576566,60.6412821069131,60,2540,61,2541,13.5
5,6,5,SNR07,a,b,1.01161897273414,b,HIT,No,73.0185212480888,74.0303266763392,74,2554,75,2555,13.5
5,6,6,SNR11,a,b,0,None,None,No,88.0215213572821,0,89,2569,0,0,15
5,6,7,SNR07,a,b,0.93525688524096,b,HIT,No,102.524309209392,103.45976937106,103,2583,104,2584,14.5
5,6,8,catch,catch,None,0,None,None,No,115.527107752758,0,116,2596,0,0,13
5,6,9,SNR11,a,b,0,None,None,No,128.530007221588,0,129,2609,0,0,13
5,6,10,SNR09,a,b,0,None,None,No,141.532686307978,0,142,2622,0,0,13
5,6,11,SNR11,a,b,1.39630264980588,b,HIT,No,156.035740158556,157.432353852659,157,2637,158,2638,14.5
5,6,12,SNR07,a,b,1.17603025939025,b,HIT,No,171.038912753358,172.215104949653,172,2652,173,2653,15
5,6,13,SNR11,a,b,0,None,None,No,184.541691482261,0,185,2665,0,0,13.5
5,6,14,catch,catch,None,0,None,None,No,199.54425567328,0,200,2680,0,0,15
5,6,15,SNR09,a,b,0,None,None,No,214.04704523599,0,215,2695,0,0,14.5
5,6,16,SNR07,a,b,1.07646472355918,b,HIT,No,228.549985046496,229.626633089468,229,2709,230,2710,14.5
5,6,17,catch,catch,None,0,None,None,No,242.552585730337,0,243,2723,0,0,14
5,6,18,SNR11,a,b,0,None,None,No,256.055890183972,0,257,2737,0,0,13.5
5,6,19,SNR09,a,b,0,None,None,No,270.05891367138,0,271,2751,0,0,14
5,6,20,SNR11,a,b,0,None,None,No,284.562012282686,0,285,2765,0,0,14.5
5,6,21,SNR07,a,b,0.851865367709252,b,HIT,No,297.564999277271,298.417022020283,298,2778,299,2779,13
5,6,22,SNR09,a,b,0,None,None,No,311.567909579908,0,312,2792,0,0,14
5,6,23,SNR11,a,b,0,None,None,No,324.570782819521,0,325,2805,0,0,13
5,6,24,SNR09,a,b,1.04869767663331,b,HIT,No,339.573567107878,340.622523370374,340,2820,341,2821,15
5,6,25,SNR09,a,b,0,None,None,No,354.076781754957,0,355,2835,0,0,14.5
5,6,26,SNR11,a,b,0,None,None,No,369.079740239524,0,370,2850,0,0,15
5,6,27,SNR09,a,b,0,None,None,No,382.082797653854,0,383,2863,0,0,13
5,6,28,SNR07,a,b,0,None,None,No,395.085566261701,0,396,2876,0,0,13
5,6,29,SNR07,a,b,0.932292698667879,b,HIT,No,409.088397591588,410.020878456376,410,2890,411,2891,14
5,6,30,SNR11,a,b,1.21413133253736,b,HIT,No,423.09134866355,424.305668732408,424,2904,425,2905,14
5,6,31,SNR09,a,b,0,None,None,No,438.094108148192,0,439,2919,0,0,15
5,6,32,SNR07,a,b,1.41223433296182,b,HIT,No,453.096975685801,454.509480863933,454,2934,455,2935,15
5,6,33,SNR07,a,b,0,None,None,No,467.100246925266,0,468,2948,0,0,14
5,0,0,None,None,None,0,None,None,No,0,0,0,0,0,0,0
5,0,0,None,None,None,0,None,None,No,0,0,0,0,0,0,0
5,0,0,None,None,None,0,None,None,No,0,0,0,0,0,0,0
5,0,0,None,None,None,0,None,None,No,0,0,0,0,0,0,0
5,0,0,None,None,None,0,None,None,No,0,0,0,0,0,0,0
5,0,0,None,None,None,0,None,None,No,0,0,0,0,0,0,0
5,0,0,None,None,None,0,None,None,No,0,0,0,0,0,0,0
5,0,0,None,None,None,0,None,None,No,0,0,0,0,0,0,0
5,0,0,None,None,None,0,None,None,No,0,0,0,0,0,0,0
5,0,0,None,None,None,0,None,None,No,0,0,0,0,0,0,0
5,0,0,None,None,None,0,None,None,No,0,0,0,0,0,0,0
5,0,0,None,None,None,0,None,None,No,0,0,0,0,0,0,0
5,0,0,None,None,None,0,None,None,No,0,0,0,0,0,0,0
5,0,0,None,None,None,0,None,None,No,0,0,0,0,0,0,0
5,0,0,None,None,None,0,None,None,No,0,0,0,0,0,0,0
5,0,0,None,None,None,0,None,None,No,0,0,0,0,0,0,0
5,0,0,None,None,None,0,None,None,No,0,0,0,0,0,0,0
5,0,0,None,None,None,0,None,None,No,0,0,0,0,0,0,0
5,0,0,None,None,None,0,None,None,No,0,0,0,0,0,0,0
