subject,block,trial,SNR,stim,correct_resp,RT,response,status,IsDouble,time_stim,time_resp,volume_stim,volume_stim_global,volume_resp,volume_resp_global,ISI
7,1,1,catch,catch,None,0,None,None,No,19.0654692242844,0,20,20,0,0,14
7,1,2,SNR11,a,b,0,None,None,No,32.0729849323766,0,33,33,0,0,13
7,1,3,SNR07,a,b,0.905597779898017,b,HIT,No,46.0768003758709,46.9829623613042,47,47,48,48,14
7,1,4,SNR07,a,b,0.892233891847354,b,HIT,No,59.5819556293258,60.4751887836282,60,60,61,61,13.5
7,1,5,SNR09,a,b,1.10033678423315,b,HIT,No,73.5893860936308,74.6900484578144,74,74,75,75,14
7,1,6,SNR09,a,b,1.00418293259645,b,HIT,No,86.5938278936488,87.5980932190705,87,87,88,88,13
7,1,7,SNR11,a,b,1.07516477852187,b,HIT,No,101.596780065612,102.67283377433,102,102,103,103,15
7,1,8,catch,catch,None,0,None,None,No,116.60065423894,0,117,117,0,0,15
7,1,9,SNR07,a,b,0.955343374234872,b,HIT,No,131.103081691203,132.058649151112,132,132,133,133,14.5
7,1,10,SNR11,a,b,0,None,None,No,145.605963016741,0,146,146,0,0,14.5
7,1,11,SNR09,a,b,0.984963166985835,b,HIT,No,160.108771642728,161.09388676603,161,161,162,162,14.5
7,1,12,SNR09,a,b,0,None,None,No,173.611566298997,0,174,174,0,0,13.5
7,1,13,SNR07,a,b,0.872767232858678,b,HIT,No,188.114302795626,188.987733162428,189,189,190,190,14.5
7,1,14,SNR07,a,b,1.22373044488995,b,HIT,No,202.117002372286,203.340900738884,203,203,204,204,14
7,1,15,SNR11,a,b,0,None,None,No,217.119880419217,0,218,218,0,0,15
7,1,16,SNR11,a,b,0,None,None,No,230.122643287251,0,231,231,0,0,13
7,1,17,SNR11,a,b,0,None,None,No,244.125432954336,0,245,245,0,0,14
7,1,18,catch,catch,None,0,None,None,No,257.1282471397,0,258,258,0,0,13
7,1,19,SNR11,a,b,0,None,None,No,271.631067739731,0,272,272,0,0,14.5
7,1,20,SNR11,a,b,0,None,None,No,285.634065242003,0,286,286,0,0,14
7,1,21,SNR09,a,b,0.990335806352959,b,HIT,No,300.637040506764,301.62757531032,301,301,302,302,15
7,1,22,SNR09,a,b,0.973137943548863,b,HIT,No,314.6399641691,315.613294267541,315,315,316,316,14
7,1,23,SNR07,a,b,0.974856503915362,b,HIT,No,327.642878708354,328.617947038805,328,328,329,329,13
7,1,24,SNR11,a,b,0,None,None,No,341.145822755073,0,342,342,0,0,13.5
7,1,25,SNR07,a,b,0.923342742460591,b,HIT,No,354.148779773673,355.072294714286,355,355,356,356,13
7,1,26,SNR07,a,b,0.860181942742201,b,HIT,No,367.651716692986,368.512081952636,368,368,369,369,13.5
7,1,27,SNR09,a,b,0.947891527708634,b,HIT,No,382.15471091665,383.102749268942,383,383,384,384,14.5
7,1,28,SNR11,a,b,0,None,None,No,395.657546626784,0,396,396,0,0,13.5
7,1,29,SNR09,a,b,0,None,None,No,409.160429092707,0,410,410,0,0,13.5
7,1,30,SNR07,a,b,0.920301335361728,b,HIT,No,424.16326095404,425.083732206785,425,425,426,426,15
7,1,31,SNR09,a,b,0.998124921778071,b,HIT,No,439.166075994694,440.164366557408,440,440,441,441,15
7,1,32,SNR07,a,b,0,None,None,No,454.168838007439,0,455,455,0,0,15
7,1,33,SNR09,a,b,0,None,None,No,467.171744563998,0,468,468,0,0,13
7,2,1,SNR07,a,b,0.867325885288665,b,HIT,No,19.5076458545433,20.3750521369819,20,507,21,508,14.5
7,2,1,SNR07,a,b,10.0510228256644,b,FA,No,0,29.5608744701129,0,0,30,517,14.5
7,2,2,SNR07,a,b,1.24994105634505,b,HIT,No,32.5103434355299,33.7604632472409,33,520,34,521,13
7,2,3,SNR07,a,b,0.98077652813663,b,HIT,No,45.5132354521784,46.4941724895206,46,533,47,534,13
7,2,4,SNR11,a,b,0,None,None,No,58.5161548380696,0,59,546,0,0,13
7,2,5,SNR11,a,b,0,None,None,No,71.5191192691728,0,72,559,0,0,13
7,2,6,SNR09,a,b,1.57399374555825,b,HIT,No,84.5219990266813,86.0961889184787,85,572,87,574,13
7,2,7,SNR11,a,b,0,None,None,No,99.0248726546198,0,100,587,0,0,14.5
7,2,8,SNR11,a,b,1.12550536879098,b,HIT,No,114.027780351564,115.153474168994,115,602,116,603,15
7,2,9,SNR09,a,b,1.05251102823786,b,HIT,No,128.53057985447,129.583242839023,129,616,130,617,14.5
7,2,10,SNR07,a,b,1.01845941383544,b,HIT,No,142.533382635983,143.55200284412,143,630,144,631,14
7,2,11,SNR11,a,b,0,None,None,No,156.536195966059,0,157,644,0,0,14
7,2,12,SNR07,a,b,0.987026693848748,b,HIT,No,171.539124189935,172.52634959589,172,659,173,660,15
7,2,13,SNR07,a,b,0.982095383520573,b,HIT,No,186.042020910672,187.024220354335,187,674,188,675,14.5
7,2,14,SNR09,a,b,0,None,None,No,199.54492675449,0,200,687,0,0,13.5
7,2,15,SNR09,a,b,1.2102967082501,b,HIT,No,213.04774507375,214.258226809485,214,701,215,702,13.5
7,2,16,SNR11,a,b,0,None,None,No,226.550548568004,0,227,714,0,0,13.5
7,2,17,SNR11,a,b,0,None,None,No,241.553419487528,0,242,729,0,0,15
7,2,18,SNR11,a,b,0,None,None,No,255.556313214754,0,256,743,0,0,14
7,2,19,SNR09,a,b,1.12537679036905,b,HIT,No,269.559417057938,270.684958063763,270,757,271,758,14
7,2,20,SNR09,a,b,1.19805638463004,b,HIT,No,284.562332167385,285.760629743468,285,772,286,773,15
7,2,21,SNR09,a,b,0,None,None,No,299.565230741247,0,300,787,0,0,15
7,2,22,SNR07,a,b,0.935660327169899,b,HIT,No,313.068048205219,314.003985931069,314,801,315,802,13.5
7,2,23,catch,catch,None,0,None,None,No,326.071003798338,0,327,814,0,0,13
7,2,24,SNR09,a,b,1.09533819118406,b,HIT,No,340.073756973099,341.169282187441,341,828,342,829,14
7,2,25,SNR11,a,b,0,None,None,No,354.576592968328,0,355,842,0,0,14.5
7,2,26,SNR09,a,b,0,None,None,No,369.079558397269,0,370,857,0,0,14.5
7,2,27,SNR07,a,b,1.8855284273759,b,HIT,No,384.082493178359,385.968255669781,385,872,386,873,15
7,2,28,SNR09,a,b,1.00221063654317,b,HIT,No,397.085586187884,398.087974724504,398,885,399,886,13
7,2,29,SNR07,a,b,0.901935433104882,b,HIT,No,410.588491746605,411.490638721149,411,898,412,899,13.5
7,2,30,catch,catch,None,0,None,None,No,424.59108526745,0,425,912,0,0,14
7,2,31,SNR07,a,b,0.991888725780882,b,HIT,No,438.594014346615,439.586044765247,439,926,440,927,14
7,2,32,catch,catch,None,0,None,None,No,453.596685413648,0,454,941,0,0,15
7,2,33,SNR11,a,b,0,None,None,No,467.099433314127,0,468,955,0,0,13.5
7,3,1,catch,catch,None,0,None,None,No,20.0069988285394,0,21,997,0,0,15
7,3,2,SNR11,a,b,1.45265448868304,b,HIT,No,34.010456191108,35.4633253572898,35,1011,36,1012,14
7,3,3,SNR11,a,b,0,None,None,No,48.0132871971529,0,49,1025,0,0,14
7,3,4,SNR11,a,b,0.977056021703902,b,HIT,No,63.0162570450854,63.9935003750442,64,1040,64,1040,15
7,3,5,SNR07,a,b,1.00180323396125,b,HIT,No,76.0214261257098,77.0233687717511,77,1053,78,1054,13
7,3,6,SNR07,a,b,1.06855567659477,b,HIT,No,89.5240847910544,90.5928599917835,90,1066,91,1067,13.5
7,3,7,SNR09,a,b,0.994398998513134,b,HIT,No,102.527040954365,103.521601032277,103,1079,104,1080,13
7,3,8,SNR07,a,b,0.903226919246663,b,HIT,No,117.029872388055,117.933265518432,118,1094,118,1094,14.5
7,3,9,SNR09,a,b,0.951903687635422,b,HIT,No,130.032829691751,130.984983979015,131,1107,131,1107,13
7,3,10,SNR07,a,b,0.807764426084759,b,HIT,No,144.035713440607,144.843648639364,145,1121,145,1121,14
7,3,11,SNR07,a,b,0.961294759046723,b,HIT,No,157.53878521046,158.500286664308,158,1134,159,1135,13.5
7,3,11,SNR07,a,b,13.458010592467,b,FA,No,0,170.999282127571,0,0,172,1148,13.5
7,3,12,SNR09,a,b,1.14217323761295,b,HIT,No,172.541530687621,173.683942265723,173,1149,174,1150,15
7,3,13,SNR07,a,b,0.847094883178215,b,HIT,No,187.544471170637,188.391755072647,188,1164,189,1165,15
7,3,14,SNR09,a,b,0.893904556038251,b,HIT,No,201.547320993036,202.44138064145,202,1178,203,1179,14
7,3,15,SNR11,a,b,0,None,None,No,215.050123346905,0,216,1192,0,0,13.5
7,3,16,catch,catch,None,0,None,None,No,229.053289341077,0,230,1206,0,0,14
7,3,17,SNR09,a,b,0.918995024214382,b,HIT,No,242.556119064189,243.475298830792,243,1219,244,1220,13.5
7,3,18,SNR11,a,b,0,None,None,No,257.059035171473,0,258,1234,0,0,14.5
7,3,19,SNR07,a,b,0.832900794761372,b,HIT,No,270.061789486619,270.894854781934,271,1247,271,1247,13
7,3,20,SNR09,a,b,0,None,None,No,284.564631753966,0,285,1261,0,0,14.5
7,3,21,SNR11,a,b,0,None,None,No,298.067571809338,0,299,1275,0,0,13.5
7,3,22,catch,catch,None,0,None,None,No,311.070338383624,0,312,1288,0,0,13
7,3,23,SNR09,a,b,0,None,None,No,325.573181221164,0,326,1302,0,0,14.5
7,3,24,SNR09,a,b,0.97897985139025,b,HIT,No,339.075959912042,340.055107400045,340,1316,341,1317,13.5
7,3,25,SNR11,a,b,0,None,None,No,352.078889276303,0,353,1329,0,0,13
7,3,26,SNR11,a,b,0,None,None,No,365.081774165545,0,366,1342,0,0,13
7,3,27,SNR11,a,b,1.67636383644822,b,HIT,No,379.584720493034,381.261267076198,380,1356,382,1358,14.5
7,3,28,SNR07,a,b,0.961001965169999,b,HIT,No,394.087691053707,395.04885438337,395,1371,396,1372,14.5
7,3,29,SNR09,a,b,1.22083956862662,b,HIT,No,408.090444228468,409.311487355838,409,1385,410,1386,14
7,3,30,SNR07,a,b,0.911593354632714,b,HIT,No,422.093353921086,423.005218117184,423,1399,424,1400,14
7,3,31,SNR09,a,b,1.00440160144171,b,HIT,No,437.096244227157,438.100812895019,438,1414,439,1415,15
7,3,32,SNR07,a,b,0.933316265569374,b,HIT,No,452.099024200968,453.032530340659,453,1429,454,1430,15
7,3,33,SNR11,a,b,0,None,None,No,467.101824131518,0,468,1444,0,0,15
7,4,1,SNR11,a,b,0,None,None,No,18.5071184264282,0,19,1482,0,0,13.5
7,4,2,SNR09,a,b,0.945042275501692,b,HIT,No,33.5100703132952,34.4552599835728,34,1497,35,1498,15
7,4,3,SNR09,a,b,1.00360190638094,b,HIT,No,47.0130234830954,48.0169891723284,48,1511,49,1512,13.5
7,4,4,SNR11,a,b,1.05649125737909,b,HIT,No,61.5159695254886,62.5726252834213,62,1525,63,1526,14.5
7,4,5,SNR11,a,b,0,None,None,No,74.5188709503143,0,75,1538,0,0,13
7,4,6,SNR09,a,b,1.04287990575904,b,HIT,No,88.5217507078228,89.5648527035823,89,1552,90,1553,14
7,4,7,SNR07,a,b,0.817650139541001,b,HIT,No,101.524725687488,102.342556863165,102,1565,103,1566,13
7,4,8,SNR07,a,b,0.760438443863677,b,HIT,No,115.527609151248,116.288213806243,116,1579,117,1580,14
7,4,9,SNR09,a,b,1.05413778760158,b,HIT,No,129.030625897519,130.084929040962,130,1593,131,1594,13.5
7,4,10,SNR11,a,b,1.45000851012446,b,HIT,No,144.033507650701,145.483690354651,145,1608,146,1609,15
7,4,11,SNR07,a,b,0.795646693866729,b,HIT,No,158.53643943828,159.332343574087,159,1622,160,1623,14.5
7,4,12,SNR07,a,b,1.05661555935694,b,HIT,No,172.039240081572,173.096023847734,173,1636,174,1637,13.5
7,4,13,SNR07,a,b,0.860167687929788,b,HIT,No,185.04224014971,185.902623370425,186,1649,186,1649,13
7,4,14,SNR11,a,b,0,None,None,No,200.0449910437,0,201,1664,0,0,15
7,4,15,catch,catch,None,0,None,None,No,214.047640728512,0,215,1678,0,0,14
7,4,16,SNR11,a,b,0,None,None,No,227.05060401923,0,228,1691,0,0,13
7,4,17,SNR09,a,b,1.13077024176528,b,HIT,No,240.053446429126,241.184375184422,241,1704,242,1705,13
7,4,18,SNR07,a,b,0.899489307035765,b,HIT,No,254.056334454427,254.956002231734,255,1718,255,1718,14
7,4,19,SNR09,a,b,0,None,None,No,268.559143080414,0,269,1732,0,0,14.5
7,4,20,SNR07,a,b,0.945759292641014,b,HIT,No,283.062389899381,284.00831796902,284,1747,285,1748,14.5
7,4,21,SNR07,a,b,0.989691203667462,b,HIT,No,298.065292749688,299.055123935629,299,1762,300,1763,15
7,4,22,SNR07,a,b,0.897309460891847,b,HIT,No,313.068222399045,313.965691228756,314,1777,314,1777,15
7,4,23,SNR09,a,b,0.97921248995408,b,HIT,No,326.07112239839,327.05044778647,327,1790,328,1791,13
7,4,24,SNR11,a,b,0,None,None,No,340.073967374152,0,341,1804,0,0,14
7,4,25,SNR07,a,b,0.853692866348865,b,HIT,No,353.576845848727,354.43071775554,354,1817,355,1818,13.5
7,4,26,catch,catch,None,0,None,None,No,366.579550272025,0,367,1830,0,0,13
7,4,27,SNR11,a,b,0,None,None,No,380.582429744437,0,381,1844,0,0,14
7,4,28,SNR09,a,b,0,None,None,No,395.0853244695,0,396,1859,0,0,14.5
7,4,29,SNR11,a,b,10.3147545591873,b,FA,No,409.588265950353,419.903200690389,410,1873,420,1883,14.5
7,4,30,catch,catch,None,0,None,None,No,424.590991185678,0,425,1888,0,0,15
7,4,31,SNR09,a,b,1.47381319408487,b,HIT,No,438.593851841736,440.067824689737,439,1902,441,1904,14
7,4,32,SNR11,a,b,0,None,None,No,452.09670437255,0,453,1916,0,0,13.5
7,4,33,SNR09,a,b,0.908768620705814,b,HIT,No,467.099572726207,468.00848646092,468,1931,469,1932,15
7,5,1,SNR09,a,b,1.06710368124732,b,HIT,No,20.0080465573627,21.0755462373421,21,1971,22,1972,15
7,5,2,SNR09,a,b,0.857940800897268,b,HIT,No,33.5109102069314,34.3690443031064,34,1984,35,1985,13.5
7,5,3,catch,catch,None,0,None,None,No,48.5137032951713,0,49,1999,0,0,15
7,5,4,SNR11,a,b,0,None,None,No,63.0167391428922,0,64,2014,0,0,14.5
7,5,5,SNR09,a,b,0.881320976501229,b,HIT,No,77.0195918162543,77.9011072284166,78,2028,78,2028,14
7,5,6,SNR07,a,b,0.856112193368972,b,HIT,No,90.522471716311,91.3787504059058,91,2041,92,2042,13.5
7,5,7,SNR07,a,b,0.814835954175578,b,HIT,No,105.025390389461,105.840413366796,106,2056,106,2056,14.5
7,5,8,SNR07,a,b,0.809710778377848,b,HIT,No,118.528286825102,119.338190043469,119,2069,120,2070,13.5
7,5,9,SNR07,a,b,0.805559776565133,b,HIT,No,131.531064233047,132.336802194785,132,2082,133,2083,13
7,5,10,SNR09,a,b,0.796137914754581,b,HIT,No,146.034085255761,146.830438418206,147,2097,147,2097,14.5
7,5,10,SNR09,a,b,9.97907535864397,b,FA,No,0,156.015369825467,0,0,157,2107,14.5
7,5,11,SNR09,a,b,0.872994169496451,b,HIT,No,160.036958741152,160.910131380918,161,2111,161,2111,14
7,5,12,SNR09,a,b,0.952743581272443,b,HIT,No,174.539807280618,175.492803172095,175,2125,176,2126,14.5
7,5,13,catch,catch,None,0,None,None,No,187.542615764057,0,188,2138,0,0,13
7,5,14,SNR07,a,b,0.898659106673222,b,HIT,No,200.545452472027,201.444250990781,201,2151,202,2152,13
7,5,15,SNR11,a,b,0,None,None,No,214.548325387225,0,215,2165,0,0,14
7,5,16,SNR09,a,b,0,None,None,No,227.551137862012,0,228,2178,0,0,13
7,5,17,SNR11,a,b,0,None,None,No,242.054124958269,0,243,2193,0,0,14.5
7,5,18,SNR11,a,b,0,None,None,No,257.056915765739,0,258,2208,0,0,15
7,5,19,SNR09,a,b,1.41270109622383,b,HIT,No,270.559641713805,271.972599111583,271,2221,272,2222,13.5
7,5,20,catch,catch,None,0,None,None,No,284.562271441877,0,285,2235,0,0,14
7,5,21,SNR09,a,b,1.48944103168287,b,HIT,No,299.565216201337,301.054870199941,300,2250,302,2252,15
7,5,22,SNR11,a,b,0,None,None,No,313.068017985014,0,314,2264,0,0,13.5
7,5,23,SNR11,a,b,0,None,None,No,326.5708420062,0,327,2277,0,0,13.5
7,5,24,SNR09,a,b,0.966254293907696,b,HIT,No,339.573654480986,340.540053888899,340,2290,341,2291,13
7,5,25,SNR07,a,b,0.938964307941205,b,HIT,No,354.076539512776,355.015658627997,355,2305,356,2306,14.5
7,5,26,SNR07,a,b,0.922726364307891,b,HIT,No,368.079432954906,369.002606635274,369,2319,370,2320,14
7,5,27,SNR07,a,b,0,None,None,No,383.082221481605,0,384,2334,0,0,15
7,5,28,SNR11,a,b,0.988398006948046,b,HIT,No,398.085087269396,399.073647781224,399,2349,400,2350,15
7,5,29,SNR07,a,b,0.891210396206588,b,HIT,No,413.08789233168,413.979500437195,414,2364,414,2364,15
7,5,30,SNR07,a,b,0.850159097977667,b,HIT,No,427.090615286235,427.940953424676,428,2378,428,2378,14
7,5,31,SNR11,a,b,0,None,None,No,441.093411225438,0,442,2392,0,0,14
7,5,32,SNR11,a,b,0,None,None,No,454.096231112728,0,455,2405,0,0,13
7,5,33,SNR11,a,b,0,None,None,No,467.099027622123,0,468,2418,0,0,13
7,6,1,SNR07,a,b,0.871357146665105,b,HIT,No,20.0065800221064,20.8783003814303,21,2458,21,2458,15
7,6,2,SNR07,a,b,0.8401054628157,b,HIT,No,35.0093847992936,35.8497454232782,36,2473,36,2473,15
7,6,3,SNR07,a,b,0.996843699102101,b,HIT,No,49.0123175847099,50.009949289925,50,2487,51,2488,14
7,6,4,SNR11,a,b,0,None,None,No,63.0152104566473,0,64,2501,0,0,14
7,6,5,SNR07,a,b,0.942571346055047,b,HIT,No,76.0181218598427,76.960849723756,77,2514,77,2514,13
7,6,6,SNR09,a,b,0.998264333857151,b,HIT,No,89.0210298418828,90.0194612421588,90,2527,91,2528,13
7,6,7,SNR11,a,b,0,None,None,No,102.023966618647,0,103,2540,0,0,13
7,6,8,SNR09,a,b,1.06970860594447,b,HIT,No,117.026884579057,118.096812994232,118,2555,119,2556,15
7,6,9,SNR07,a,b,1.70471951230138,b,HIT,No,131.029724993279,132.734595891706,132,2569,133,2570,14
7,6,10,SNR09,a,b,0.856457444961052,b,HIT,No,145.532598051025,146.389217430672,146,2583,147,2584,14.5
7,6,11,catch,catch,None,0,None,None,No,158.535272539213,0,159,2596,0,0,13
7,6,12,SNR07,a,b,1.20733370262678,b,HIT,No,173.038049234417,174.245563117893,174,2611,175,2612,14.5
7,6,13,SNR11,a,b,0,None,None,No,186.040916732785,0,187,2624,0,0,13
7,6,14,SNR11,a,b,0,None,None,No,201.043683877264,0,202,2639,0,0,15
7,6,15,SNR11,a,b,1.26379445470593,b,HIT,No,216.046564490061,217.310528006861,217,2654,218,2655,15
7,6,16,SNR09,a,b,1.01600159882037,b,HIT,No,230.049441111511,231.065619755119,231,2668,232,2669,14
7,6,17,SNR11,a,b,0,None,None,No,244.552191577857,0,245,2682,0,0,14.5
7,6,18,catch,catch,None,0,None,None,No,258.554833850165,0,259,2696,0,0,14
7,6,19,catch,catch,None,0,None,None,No,273.557478973437,0,274,2711,0,0,15
7,6,20,SNR09,a,b,1.60110982279184,b,HIT,No,287.560632708469,289.161899619311,288,2725,290,2727,14
7,6,21,SNR07,a,b,1.07904607925593,b,HIT,No,301.063427649834,302.142617132519,302,2739,303,2740,13.5
7,6,22,SNR11,a,b,0,None,None,No,314.566258513331,0,315,2752,0,0,13.5
7,6,23,SNR09,a,b,0,None,None,No,328.069144115313,0,329,2766,0,0,13.5
7,6,24,SNR09,a,b,0,None,None,No,341.07195202856,0,342,2779,0,0,13
7,6,25,SNR09,a,b,1.03521138606084,b,HIT,No,356.07494040775,357.110331119371,357,2794,358,2795,15
7,6,26,SNR09,a,b,0,None,None,No,369.577791798179,0,370,2807,0,0,13.5
7,6,27,SNR09,a,b,0,None,None,No,384.080529435193,0,385,2822,0,0,14.5
7,6,28,SNR11,a,b,0,None,None,No,398.583425585737,0,399,2836,0,0,14.5
7,6,29,SNR11,a,b,1.2354841091601,b,HIT,No,412.086300068965,413.321978043595,413,2850,414,2851,13.5
7,6,30,SNR07,a,b,1.0173444022912,b,HIT,No,426.589134923809,427.606672336281,427,2864,428,2865,14.5
7,6,31,SNR11,a,b,0,None,None,No,440.592053454412,0,441,2878,0,0,14
7,6,32,SNR07,a,b,0,None,None,No,453.594909263833,0,454,2891,0,0,13
7,6,33,SNR07,a,b,0,None,None,No,467.09778916389,0,468,2905,0,0,13.5
7,0,0,None,None,None,0,None,None,No,0,0,0,0,0,0,0
7,0,0,None,None,None,0,None,None,No,0,0,0,0,0,0,0
7,0,0,None,None,None,0,None,None,No,0,0,0,0,0,0,0
7,0,0,None,None,None,0,None,None,No,0,0,0,0,0,0,0
7,0,0,None,None,None,0,None,None,No,0,0,0,0,0,0,0
7,0,0,None,None,None,0,None,None,No,0,0,0,0,0,0,0
7,0,0,None,None,None,0,None,None,No,0,0,0,0,0,0,0
7,0,0,None,None,None,0,None,None,No,0,0,0,0,0,0,0
7,0,0,None,None,None,0,None,None,No,0,0,0,0,0,0,0
7,0,0,None,None,None,0,None,None,No,0,0,0,0,0,0,0
7,0,0,None,None,None,0,None,None,No,0,0,0,0,0,0,0
7,0,0,None,None,None,0,None,None,No,0,0,0,0,0,0,0
7,0,0,None,None,None,0,None,None,No,0,0,0,0,0,0,0
7,0,0,None,None,None,0,None,None,No,0,0,0,0,0,0,0
7,0,0,None,None,None,0,None,None,No,0,0,0,0,0,0,0
7,0,0,None,None,None,0,None,None,No,0,0,0,0,0,0,0
7,0,0,None,None,None,0,None,None,No,0,0,0,0,0,0,0
7,0,0,None,None,None,0,None,None,No,0,0,0,0,0,0,0
7,0,0,None,None,None,0,None,None,No,0,0,0,0,0,0,0
