subject,block,trial,SNR,stim,correct_resp,RT,response,status,IsDouble,time_stim,time_resp,volume_stim,volume_stim_global,volume_resp,volume_resp_global,ISI
20,1,1,catch,catch,None,0,None,None,No,19.0618926329942,0,20,20,0,0,14
20,1,2,SNR11,a,b,0,None,None,No,32.0694095436198,0,33,33,0,0,13
20,1,3,SNR07,a,b,1.15472759111435,b,HIT,No,46.0732549540164,47.2293108196643,47,47,48,48,14
20,1,4,SNR07,a,b,0.956345126731321,b,HIT,No,59.5785338403527,60.5357559304793,60,60,61,61,13.5
20,1,5,SNR09,a,b,0,None,None,No,73.585974344544,0,74,74,0,0,14
20,1,6,SNR09,a,b,0,None,None,No,86.5904073432285,0,87,87,0,0,13
20,1,7,SNR11,a,b,0,None,None,No,101.593380921998,0,102,102,0,0,15
20,1,8,catch,catch,None,0,None,None,No,116.597230608874,0,117,117,0,0,15
20,1,9,SNR07,a,b,0.894138600124279,b,HIT,No,131.09951111286,131.993948496361,132,132,133,133,14.5
20,1,10,SNR11,a,b,0,None,None,No,145.602332163859,0,146,146,0,0,14.5
20,1,11,SNR09,a,b,0,None,None,No,160.105055711124,0,161,161,0,0,14.5
20,1,12,SNR09,a,b,0.94200609085965,b,HIT,No,173.607799215295,174.550219839558,174,174,175,175,13.5
20,1,13,SNR07,a,b,0.992984007680207,b,HIT,No,188.110567237947,189.10494594815,189,189,190,190,14.5
20,1,14,SNR07,a,b,1.6792666008696,b,HIT,No,202.113270258111,203.792792022256,203,203,204,204,14
20,1,15,SNR11,a,b,0,None,None,No,217.116087317729,0,218,218,0,0,15
20,1,16,SNR11,a,b,0,None,None,No,230.118835668576,0,231,231,0,0,13
20,1,17,SNR11,a,b,0,None,None,No,244.121619371654,0,245,245,0,0,14
20,1,18,catch,catch,None,0,None,None,No,257.124204075884,0,258,258,0,0,13
20,1,19,SNR11,a,b,1.84947048629692,b,HIT,No,271.627035105335,273.476677221018,272,272,274,274,14.5
20,1,20,SNR11,a,b,0,None,None,No,285.629881815212,0,286,286,0,0,14
20,1,21,SNR09,a,b,1.16237023023132,b,HIT,No,300.632641284905,301.795224768913,301,301,302,302,15
20,1,22,SNR09,a,b,1.03029144492757,b,HIT,No,314.635442379,315.666111864722,315,315,316,316,14
20,1,23,SNR07,a,b,0.8444687158335,b,HIT,No,327.638208976159,328.482848751182,328,328,329,329,13
20,1,24,SNR11,a,b,0,None,None,No,341.141078208828,0,342,342,0,0,13.5
20,1,25,SNR07,a,b,1.02929673578183,b,HIT,No,354.143849652664,355.173391573283,355,355,356,356,13
20,1,26,SNR07,a,b,1.17553922130901,b,HIT,No,367.646596292919,368.822296880052,368,368,369,369,13.5
20,1,27,SNR09,a,b,0.994435444823466,b,HIT,No,382.14932297627,383.14395713485,383,383,384,384,14.5
20,1,28,SNR11,a,b,0,None,None,No,395.652120364082,0,396,396,0,0,13.5
20,1,29,SNR09,a,b,1.10537758748978,b,HIT,No,409.154958521,410.260525699076,410,410,411,411,13.5
20,1,30,SNR07,a,b,1.10333428556623,b,HIT,No,424.157715139707,425.261350489429,425,425,426,426,15
20,1,31,SNR09,a,b,1.07144600317406,b,HIT,No,439.160478315683,440.232126168691,440,440,441,441,15
20,1,32,SNR07,a,b,0.948449320014333,b,HIT,No,454.163276273692,455.111915754494,455,455,456,456,15
20,1,33,SNR09,a,b,0,None,None,No,467.166014646087,0,468,468,0,0,13
20,2,1,SNR07,a,b,0.895114207669394,b,HIT,No,19.5077948817953,20.403009729276,20,507,21,508,14.5
20,2,2,SNR07,a,b,0.854132419190137,b,HIT,No,32.5104802258437,33.3647637473137,33,520,34,521,13
20,2,3,SNR07,a,b,0.999938703796943,b,HIT,No,45.5134617873746,46.5135476020639,46,533,47,534,13
20,2,4,SNR11,a,b,0,None,None,No,58.5163073568563,0,59,546,0,0,13
20,2,5,SNR11,a,b,0,None,None,No,71.5192532810576,0,72,559,0,0,13
20,2,6,SNR09,a,b,1.24556628857681,b,HIT,No,84.5221131054711,85.7678895117344,85,572,86,573,13
20,2,7,SNR11,a,b,1.61845420658938,b,HIT,No,99.025011703299,100.643664908748,100,587,101,588,14.5
20,2,8,SNR11,a,b,0,None,None,No,114.02794109178,0,115,602,0,0,15
20,2,9,SNR09,a,b,0,None,None,No,128.530638980168,0,129,616,0,0,14.5
20,2,10,SNR07,a,b,1.04555933215306,b,HIT,No,142.533479132776,143.579207528429,143,630,144,631,14
20,2,11,SNR11,a,b,1.20335458457703,b,HIT,No,156.536245729935,157.739812713004,157,644,158,645,14
20,2,12,SNR07,a,b,0.984490349132102,b,HIT,No,171.539091299417,172.523760405387,172,659,173,660,15
20,2,13,SNR07,a,b,0.997201756894356,b,HIT,No,186.042079133118,187.039436838963,187,674,188,675,14.5
20,2,14,SNR09,a,b,1.05497271890636,b,HIT,No,199.544962905817,200.600178813864,200,687,201,688,13.5
20,2,15,SNR09,a,b,1.16316993189685,b,HIT,No,213.047657087923,214.211060230508,214,701,215,702,13.5
20,2,16,SNR11,a,b,0,None,None,No,226.550359537889,0,227,714,0,0,13.5
20,2,17,SNR11,a,b,1.13016007147962,b,HIT,No,241.553170325337,242.683577862433,242,729,243,730,15
20,2,18,SNR11,a,b,1.03834462609666,b,HIT,No,255.5559571645,256.594491096085,256,743,257,744,14
20,2,19,SNR09,a,b,1.0792688246438,b,HIT,No,269.558664176045,270.638143688572,270,757,271,758,14
20,2,20,SNR09,a,b,0.935166289491463,b,HIT,No,284.561501192568,285.496962274038,285,772,286,773,15
20,2,21,SNR09,a,b,0,None,None,No,299.564250968908,0,300,787,0,0,15
20,2,22,SNR07,a,b,0,None,None,No,313.066999034656,0,314,801,0,0,13.5
20,2,23,catch,catch,None,0,None,None,No,326.070015093122,0,327,814,0,0,13
20,2,24,SNR09,a,b,0,None,None,No,340.072755461207,0,341,828,0,0,14
20,2,25,SNR11,a,b,0,None,None,No,354.575536313298,0,355,842,0,0,14.5
20,2,26,SNR09,a,b,1.34025381761603,b,HIT,No,369.078440898198,370.418854085948,370,857,371,858,14.5
20,2,27,SNR07,a,b,1.1139975447295,b,HIT,No,384.081250545251,385.195420859755,385,872,386,873,15
20,2,28,SNR09,a,b,1.09199876381899,b,HIT,No,397.084051639346,398.176233151383,398,885,399,886,13
20,2,29,SNR07,a,b,0.995961292734137,b,HIT,No,410.586876681726,411.583055789812,411,898,412,899,13.5
20,2,30,catch,catch,None,0,None,None,No,424.589448556517,0,425,912,0,0,14
20,2,31,SNR07,a,b,1.25610980631609,b,HIT,No,438.592344303359,439.848655674404,439,926,440,927,14
20,2,32,catch,catch,None,0,None,None,No,453.595008265009,0,454,941,0,0,15
20,2,33,SNR11,a,b,0,None,None,No,467.097776002564,0,468,955,0,0,13.5
20,3,1,catch,catch,None,0,None,None,No,20.0059913478266,0,21,996,0,0,15
20,3,2,SNR11,a,b,0,None,None,No,34.0095505191931,0,35,1010,0,0,14
20,3,3,SNR11,a,b,0,None,None,No,48.012305997506,0,49,1024,0,0,14
20,3,4,SNR11,a,b,0,None,None,No,63.0152393773674,0,64,1039,0,0,15
20,3,5,SNR07,a,b,0.940769332970376,b,HIT,No,76.0202619600303,76.9622706167653,77,1052,77,1052,13
20,3,6,SNR07,a,b,1.01489497821603,b,HIT,No,89.5229210750043,90.5379660151022,90,1065,91,1066,13.5
20,3,7,SNR09,a,b,0.937518353224732,b,HIT,No,102.525989021422,103.46366959577,103,1078,104,1079,13
20,3,8,SNR07,a,b,0.916486626883852,b,HIT,No,117.028739367959,117.945517080544,118,1093,118,1093,14.5
20,3,9,SNR09,a,b,0,None,None,No,130.031598622175,0,131,1106,0,0,13
20,3,10,SNR07,a,b,0.974543827935122,b,HIT,No,144.034426230443,145.009744956463,145,1120,146,1121,14
20,3,11,SNR07,a,b,0.944493006245466,b,HIT,No,157.537197389181,158.481877990328,158,1133,159,1134,13.5
20,3,12,SNR09,a,b,1.01742950508196,b,HIT,No,172.539945740028,173.557597907148,173,1148,174,1149,15
20,3,13,SNR07,a,b,1.03950184144196,b,HIT,No,187.542759093364,188.58244396814,188,1163,189,1164,15
20,3,14,SNR09,a,b,1.05824280026718,b,HIT,No,201.545675652405,202.604162782198,202,1177,203,1178,14
20,3,15,SNR11,a,b,8.6871013964701,b,FA,No,215.048566837669,223.735868088283,216,1191,224,1199,13.5
20,3,16,catch,catch,None,0,None,None,No,229.05157548357,0,230,1205,0,0,14
20,3,17,SNR09,a,b,0.890197681685095,b,HIT,No,242.554179859606,243.444586233499,243,1218,244,1219,13.5
20,3,18,SNR11,a,b,0,None,None,No,257.056958430908,0,258,1233,0,0,14.5
20,3,19,SNR07,a,b,1.08718430314912,b,HIT,No,270.059747265762,271.147152805456,271,1246,272,1247,13
20,3,20,SNR09,a,b,1.2012340209476,b,HIT,No,284.562558338308,285.76398309023,285,1260,286,1261,14.5
20,3,21,SNR11,a,b,0,None,None,No,298.06536427908,0,299,1274,0,0,13.5
20,3,22,catch,catch,None,0,None,None,No,311.067919333052,0,312,1287,0,0,13
20,3,23,SNR09,a,b,1.1594200295367,b,HIT,No,325.570659986235,326.730310945678,326,1301,327,1302,14.5
20,3,23,SNR09,a,b,9.60530089594249,b,FA,No,0,335.178587495916,0,0,336,1311,14.5
20,3,24,SNR09,a,b,1.11546124113374,b,HIT,No,339.073439127735,340.189244197815,340,1315,341,1316,13.5
20,3,25,SNR11,a,b,0,None,None,No,352.076316913363,0,353,1328,0,0,13
20,3,26,SNR11,a,b,0,None,None,No,365.079064979111,0,366,1341,0,0,13
20,3,27,SNR11,a,b,0,None,None,No,379.58177313105,0,380,1355,0,0,14.5
20,3,28,SNR07,a,b,0.92362606691313,b,HIT,No,394.0845417239,395.00834968374,395,1370,396,1371,14.5
20,3,29,SNR09,a,b,0.952626585218241,b,HIT,No,408.087318014413,409.040107105855,409,1384,410,1385,14
20,3,30,SNR07,a,b,0.919647515445831,b,HIT,No,422.090072067233,423.009880093216,423,1398,424,1399,14
20,3,31,SNR09,a,b,1.08855534248869,b,HIT,No,437.092913075137,438.181656012531,438,1413,439,1414,15
20,3,32,SNR07,a,b,0,None,None,No,452.095766912479,0,453,1428,0,0,15
20,3,33,SNR11,a,b,1.99142793932697,b,HIT,No,467.09853949671,469.090310409692,468,1443,470,1445,15
20,4,1,SNR11,a,b,1.6181240623846,b,HIT,No,18.507360106376,20.1256823123096,19,1481,21,1483,13.5
20,4,2,SNR09,a,b,0.888012970841373,b,HIT,No,33.5102105225345,34.3988401617308,34,1496,35,1497,15
20,4,2,SNR09,a,b,5.91312018218741,b,FA,No,0,39.4257164101064,0,0,40,1502,15
20,4,3,SNR09,a,b,0.98095940251369,b,HIT,No,47.0131920840653,47.9943199798834,48,1510,48,1510,13.5
20,4,4,SNR11,a,b,0.926988235121826,b,HIT,No,61.5160695845942,62.4431841184094,62,1524,63,1525,14.5
20,4,5,SNR11,a,b,0.978636133731925,b,HIT,No,74.5190465845469,75.4978475053014,75,1537,76,1538,13
20,4,6,SNR09,a,b,0.995432434763643,b,HIT,No,88.522034988445,89.5176678475452,89,1551,90,1552,14
20,4,7,SNR07,a,b,0.821603520162171,b,HIT,No,101.525001154649,102.346741807263,102,1564,103,1565,13
20,4,8,SNR07,a,b,0.894063048996031,b,HIT,No,115.527960763585,116.422242483232,116,1578,117,1579,14
20,4,9,SNR09,a,b,1.09204894116556,b,HIT,No,129.03074503686,130.123061115454,130,1592,131,1593,13.5
20,4,10,SNR11,a,b,0,None,None,No,144.033561526281,0,145,1607,0,0,15
20,4,11,SNR07,a,b,1.39003688606317,b,HIT,No,158.53634294857,159.926621883373,159,1621,160,1622,14.5
20,4,12,SNR07,a,b,0.919142035578261,b,HIT,No,172.039060793863,172.958442027188,173,1635,173,1635,13.5
20,4,13,SNR07,a,b,0.856192541934433,b,HIT,No,185.041845637335,185.89826369229,186,1648,186,1648,13
20,4,14,SNR11,a,b,0.957067851762986,b,HIT,No,200.044698049184,201.002008519888,201,1663,202,1664,15
20,4,15,catch,catch,None,0,None,None,No,214.047302995417,0,215,1677,0,0,14
20,4,16,SNR11,a,b,1.16647850156005,b,HIT,No,227.050046784686,228.216702902703,228,1690,229,1691,13
20,4,17,SNR09,a,b,0.919281163703999,b,HIT,No,240.0528646996,240.972379073988,241,1703,241,1703,13
20,4,18,SNR07,a,b,0.906911874306388,b,HIT,No,254.056073769842,254.963198897923,255,1717,255,1717,14
20,4,19,SNR09,a,b,0.978893007602892,b,HIT,No,268.55883238424,269.537999086544,269,1731,270,1732,14.5
20,4,20,SNR07,a,b,0.903937155133463,b,HIT,No,283.06172841618,283.965900207495,284,1746,284,1746,14.5
20,4,21,SNR07,a,b,1.03482280264143,b,HIT,No,298.064467643871,299.099536486638,299,1761,300,1762,15
20,4,22,SNR07,a,b,0.92549089709064,b,HIT,No,313.067160685582,313.992762771136,314,1776,315,1777,15
20,4,23,SNR09,a,b,1.13793157518376,b,HIT,No,326.069980311088,327.208113451011,327,1789,328,1790,13
20,4,23,SNR09,a,b,13.1897918722971,b,FA,No,0,339.262076635654,0,0,340,1802,13
20,4,24,SNR11,a,b,0,None,None,No,340.072760307884,0,341,1803,0,0,14
20,4,25,SNR07,a,b,0.964030245537288,b,HIT,No,353.575571095332,354.53978009772,354,1816,355,1817,13.5
20,4,26,catch,catch,None,0,None,None,No,366.57817090979,0,367,1829,0,0,13
20,4,27,SNR11,a,b,0,None,None,No,380.581171858028,0,381,1843,0,0,14
20,4,28,SNR09,a,b,1.0461181254941,b,HIT,No,395.08390025197,396.130206542558,396,1858,397,1859,14.5
20,4,29,SNR11,a,b,1.23797781819303,b,HIT,No,409.586669985215,410.82491750671,410,1872,411,1873,14.5
20,4,30,catch,catch,None,0,None,None,No,424.589299164832,0,425,1887,0,0,15
20,4,31,SNR09,a,b,0.856204230978619,b,HIT,No,438.59207032357,439.44848296165,439,1901,440,1902,14
20,4,32,SNR11,a,b,0,None,None,No,452.094793300638,0,453,1915,0,0,13.5
20,4,33,SNR09,a,b,1.10845893353689,b,HIT,No,467.097500597282,468.206120326449,468,1930,469,1931,15
20,5,1,SNR09,a,b,0.869330172165064,b,HIT,No,20.0069013826714,20.8764143030564,21,1971,21,1971,15
20,5,2,SNR09,a,b,0.908169729475048,b,HIT,No,33.5098259244751,34.4182054865522,34,1984,35,1985,13.5
20,5,3,catch,catch,None,0,None,None,No,48.5125648670671,0,49,1999,0,0,15
20,5,4,SNR11,a,b,0,None,None,No,63.0156185585527,0,64,2014,0,0,14.5
20,5,5,SNR09,a,b,1.06474590013386,b,HIT,No,77.0186075326481,78.0835304790398,78,2028,79,2029,14
20,5,6,SNR07,a,b,0.851701668230817,b,HIT,No,90.5215491803699,91.3736086473837,91,2041,92,2042,13.5
20,5,7,SNR07,a,b,0.887524311779998,b,HIT,No,105.024433523266,105.912137162094,106,2056,106,2056,14.5
20,5,8,SNR07,a,b,0.869138015681528,b,HIT,No,118.527238608741,119.396516037654,119,2069,120,2070,13.5
20,5,9,SNR07,a,b,0.932521144335624,b,HIT,No,131.530058234247,132.46278151352,132,2082,133,2083,13
20,5,10,SNR09,a,b,1.01145383768016,b,HIT,No,146.0328889786,147.044532406877,147,2097,148,2098,14.5
20,5,11,SNR09,a,b,0.91058137883374,b,HIT,No,160.03570147664,160.94650209633,161,2111,161,2111,14
20,5,12,SNR09,a,b,1.05938633088954,b,HIT,No,174.538487460507,175.598108712671,175,2125,176,2126,14.5
20,5,13,catch,catch,None,0,None,None,No,187.541056199213,0,188,2138,0,0,13
20,5,14,SNR07,a,b,0.928769816498971,b,HIT,No,200.54390490478,201.472851482427,201,2151,202,2152,13
20,5,15,SNR11,a,b,0,None,None,No,214.546645272865,0,215,2165,0,0,14
20,5,16,SNR09,a,b,0.920797888436937,b,HIT,No,227.549294409387,228.470321232037,228,2178,229,2179,13
20,5,17,SNR11,a,b,9.34991096369049,b,FA,No,242.05195152867,251.402054363748,243,2193,252,2202,14.5
20,5,18,SNR11,a,b,0.90502224053489,b,HIT,No,257.054690756361,257.959907719274,258,2208,258,2208,15
20,5,19,SNR09,a,b,1.02928333616001,b,HIT,No,270.557384938467,271.586847316566,271,2221,272,2222,13.5
20,5,20,catch,catch,None,0,None,None,No,284.559974204275,0,285,2235,0,0,14
20,5,21,SNR09,a,b,1.21853009986808,b,HIT,No,299.562661829113,300.781373536803,300,2250,301,2251,15
20,5,22,SNR11,a,b,0,None,None,No,313.065486301296,0,314,2264,0,0,13.5
20,5,23,SNR11,a,b,1.02956814969366,b,HIT,No,326.568158530807,327.597921117769,327,2277,328,2278,13.5
20,5,24,SNR09,a,b,0.992072262248257,b,HIT,No,339.570854423505,340.563090617461,340,2290,341,2291,13
20,5,25,SNR07,a,b,0.86249892374326,b,HIT,No,354.073697142,354.936481449487,355,2305,355,2305,14.5
20,5,26,SNR07,a,b,1.11170364110149,b,HIT,No,368.076447203439,369.188350128494,369,2319,370,2320,14
20,5,27,SNR07,a,b,0.946614710293943,b,HIT,No,383.079200115864,384.026008408129,384,2334,385,2335,15
20,5,28,SNR11,a,b,1.07953881303547,b,HIT,No,398.081981538153,399.161762685036,399,2349,400,2350,15
20,5,29,SNR07,a,b,0.87368676441838,b,HIT,No,413.084737016466,413.958608524791,414,2364,414,2364,15
20,5,30,SNR07,a,b,0.872720280036447,b,HIT,No,427.087442887616,427.960363877091,428,2378,428,2378,14
20,5,31,SNR11,a,b,0,None,None,No,441.090175558038,0,442,2392,0,0,14
20,5,32,SNR11,a,b,0,None,None,No,454.092823554165,0,455,2405,0,0,13
20,5,33,SNR11,a,b,0.973983609103016,b,HIT,No,467.095612389018,468.069783022832,468,2418,469,2419,13
20,6,1,SNR07,a,b,0.885295980857336,b,HIT,No,20.0575511509717,20.9438828951652,21,2459,21,2459,15
20,6,2,SNR07,a,b,0.998634662639233,b,HIT,No,35.0648975726132,36.0637335148841,36,2474,37,2475,15
20,6,3,SNR07,a,b,0.896882104294491,b,HIT,No,49.0683646571204,49.9654192460966,50,2488,50,2488,14
20,6,4,SNR11,a,b,1.04532498108165,b,HIT,No,63.0716521294872,64.1176328374328,64,2502,65,2503,14
20,6,5,SNR07,a,b,0.826778915710747,b,HIT,No,76.0806395788751,76.9077597576433,77,2515,77,2515,13
20,6,6,SNR09,a,b,0.867017737124115,b,HIT,No,89.0836131576442,89.9508532717064,90,2528,90,2528,13
20,6,7,SNR11,a,b,1.23283463880944,b,HIT,No,102.086425370585,103.319798275609,103,2541,104,2542,13
20,6,8,SNR09,a,b,0.918947313199169,b,HIT,No,117.089276071843,118.008416396821,118,2556,119,2557,15
20,6,9,SNR07,a,b,0.876052797975717,b,HIT,No,131.092008742265,131.968228322953,132,2570,132,2570,14
20,6,10,SNR09,a,b,1.03691086504841,b,HIT,No,145.594783892383,146.631877220562,146,2584,147,2585,14.5
20,6,11,catch,catch,None,0,None,None,No,158.598145775494,0,159,2597,0,0,13
20,6,12,SNR07,a,b,0.859312946500722,b,HIT,No,173.100895551834,173.960433726256,174,2612,174,2612,14.5
20,6,13,SNR11,a,b,1.20740412559826,b,HIT,No,186.10362109479,187.311262137362,187,2625,188,2626,13
20,6,14,SNR11,a,b,1.08446930884384,b,HIT,No,201.106356616198,202.191037468233,202,2640,203,2641,15
20,6,15,SNR11,a,b,0.00464340148027986,b,HIT,No,216.10915828049,216.113979013319,217,2655,217,2655,15
20,6,16,SNR09,a,b,0.848654819099465,b,HIT,No,230.111910052521,230.960731939429,231,2669,231,2669,14
20,6,17,SNR11,a,b,0,None,None,No,244.614660399058,0,245,2683,0,0,14.5
20,6,18,catch,catch,None,0,None,None,No,258.617407894609,0,259,2697,0,0,14
20,6,19,catch,catch,None,0,None,None,No,273.62004676758,0,274,2712,0,0,15
20,6,20,SNR09,a,b,0.84895787894493,b,HIT,No,287.622701606075,288.471835675989,288,2726,289,2727,14
20,6,21,SNR07,a,b,0.862680816688226,b,HIT,No,301.125775824662,301.989206450756,302,2740,303,2741,13.5
20,6,22,SNR11,a,b,1.04867660065065,b,HIT,No,314.628597730957,315.677459930812,315,2753,316,2754,13.5
20,6,23,SNR09,a,b,0.875620873557637,b,HIT,No,328.131359766538,329.007133452961,329,2767,330,2768,13.5
20,6,24,SNR09,a,b,1.0346200975182,b,HIT,No,341.134122942514,342.16910226431,342,2780,343,2781,13
20,6,25,SNR09,a,b,0.874648117009201,b,HIT,No,356.136860744712,357.011697882116,357,2795,358,2796,15
20,6,26,SNR09,a,b,3.51167935070407,b,FA,No,369.639578019808,373.151484309026,370,2808,374,2812,13.5
20,6,27,SNR09,a,b,0.98164107336197,b,HIT,No,384.142388237058,385.124279627023,385,2823,386,2824,14.5
20,6,28,SNR11,a,b,0,None,None,No,398.645166808361,0,399,2837,0,0,14.5
20,6,29,SNR11,a,b,0,None,None,No,412.147953932622,0,413,2851,0,0,13.5
20,6,30,SNR07,a,b,0.91669931045908,b,HIT,No,426.650759588295,427.567695530623,427,2865,428,2866,14.5
20,6,31,SNR11,a,b,0,None,None,No,440.653542436077,0,441,2879,0,0,14
20,6,32,SNR07,a,b,0.919617294988711,b,HIT,No,453.656418511112,454.576289258795,454,2892,455,2893,13
20,6,33,SNR07,a,b,0,None,None,No,467.159228728363,0,468,2906,0,0,13.5
20,0,0,None,None,None,0,None,None,No,0,0,0,0,0,0,0
20,0,0,None,None,None,0,None,None,No,0,0,0,0,0,0,0
20,0,0,None,None,None,0,None,None,No,0,0,0,0,0,0,0
20,0,0,None,None,None,0,None,None,No,0,0,0,0,0,0,0
20,0,0,None,None,None,0,None,None,No,0,0,0,0,0,0,0
20,0,0,None,None,None,0,None,None,No,0,0,0,0,0,0,0
20,0,0,None,None,None,0,None,None,No,0,0,0,0,0,0,0
20,0,0,None,None,None,0,None,None,No,0,0,0,0,0,0,0
20,0,0,None,None,None,0,None,None,No,0,0,0,0,0,0,0
20,0,0,None,None,None,0,None,None,No,0,0,0,0,0,0,0
20,0,0,None,None,None,0,None,None,No,0,0,0,0,0,0,0
20,0,0,None,None,None,0,None,None,No,0,0,0,0,0,0,0
20,0,0,None,None,None,0,None,None,No,0,0,0,0,0,0,0
20,0,0,None,None,None,0,None,None,No,0,0,0,0,0,0,0
20,0,0,None,None,None,0,None,None,No,0,0,0,0,0,0,0
20,0,0,None,None,None,0,None,None,No,0,0,0,0,0,0,0
20,0,0,None,None,None,0,None,None,No,0,0,0,0,0,0,0
20,0,0,None,None,None,0,None,None,No,0,0,0,0,0,0,0
20,0,0,None,None,None,0,None,None,No,0,0,0,0,0,0,0
