subject,block,trial,SNR,stim,correct_resp,RT,response,status,IsDouble,time_stim,time_resp,volume_stim,volume_stim_global,volume_resp,volume_resp_global,ISI
26,1,1,catch,catch,None,0,None,None,No,19.0763992454072,0,20,20,0,0,14
26,1,2,SNR11,a,b,7.50525817321159,b,FA,No,32.0841005511766,39.5896036220912,33,33,40,40,13
26,1,3,SNR07,a,b,1.08690390288302,b,HIT,No,46.0893748323277,47.1766151488188,47,47,48,48,14
26,1,4,SNR07,a,b,0.943277814633802,b,HIT,No,59.5927696162633,60.5367117052264,60,60,61,61,13.5
26,1,5,SNR09,a,b,1.06238562293674,b,HIT,No,73.6002679334825,74.6628782122867,74,74,75,75,14
26,1,6,SNR09,a,b,1.13132190306351,b,HIT,No,86.6044465896356,87.73599286347,87,87,88,88,13
26,1,7,SNR11,a,b,1.46440587218513,b,HIT,No,101.6074905626,103.072119380075,102,102,104,104,15
26,1,8,catch,catch,None,0,None,None,No,116.61124585078,0,117,117,0,0,15
26,1,9,SNR07,a,b,0.911510106520836,b,HIT,No,131.113598037625,132.025304575482,132,132,133,133,14.5
26,1,10,SNR11,a,b,0,None,None,No,145.616553488196,0,146,146,0,0,14.5
26,1,11,SNR09,a,b,1.08198884304238,b,HIT,No,160.11946417865,161.201697349203,161,161,162,162,14.5
26,1,12,SNR09,a,b,1.17394493707525,b,HIT,No,173.622215785382,174.796467486052,174,174,175,175,13.5
26,1,13,SNR07,a,b,1.18309282136124,b,HIT,No,188.124956558455,189.30825436404,189,189,190,190,14.5
26,1,14,SNR07,a,b,1.2528940835964,b,HIT,No,202.127725698607,203.380802243822,203,203,204,204,14
26,1,15,SNR11,a,b,1.35481172669461,b,HIT,No,217.13047944356,218.485475912643,218,218,219,219,15
26,1,16,SNR11,a,b,1.07757384207434,b,HIT,No,230.133281369785,231.211081293208,231,231,232,232,13
26,1,17,SNR11,a,b,1.08645630172578,b,HIT,No,244.136041957049,245.222711225694,245,245,246,246,14
26,1,18,catch,catch,None,0,None,None,No,257.138823641438,0,258,258,0,0,13
26,1,19,SNR11,a,b,0,None,None,No,271.641538185653,0,272,272,0,0,14.5
26,1,20,SNR11,a,b,0,None,None,No,285.644265416653,0,286,286,0,0,14
26,1,21,SNR09,a,b,2.0833994994282,b,HIT,No,300.647022297665,302.730601692845,301,301,303,303,15
26,1,22,SNR09,a,b,1.1779573820977,b,HIT,No,314.649912888832,315.828094356605,315,315,316,316,14
26,1,23,SNR07,a,b,1.20592874816793,b,HIT,No,327.652621018381,328.85883999456,328,328,329,329,13
26,1,24,SNR11,a,b,1.20483084239913,b,HIT,No,341.155625790608,342.360636243663,342,342,343,343,13.5
26,1,25,SNR07,a,b,1.11054123532813,b,HIT,No,354.158515811582,355.269223828233,355,355,356,356,13
26,1,26,SNR07,a,b,1.12136548573108,b,HIT,No,367.661483806389,368.783023771043,368,368,369,369,13.5
26,1,27,SNR09,a,b,1.30085839638468,b,HIT,No,382.164427853108,383.465530291907,383,383,384,384,14.5
26,1,28,SNR11,a,b,0,None,None,No,395.667380737812,0,396,396,0,0,13.5
26,1,29,SNR09,a,b,1.1234851765621,b,HIT,No,409.170395773505,410.29406141601,410,410,411,411,13.5
26,1,30,SNR07,a,b,1.01795251265321,b,HIT,No,424.173381586829,425.191561891409,425,425,426,426,15
26,1,31,SNR09,a,b,1.1847805913294,b,HIT,No,439.176338605429,440.361298522317,440,440,441,441,15
26,1,32,SNR07,a,b,1.5295295597798,b,HIT,No,454.179247442758,455.708954332423,455,455,456,456,15
26,1,33,SNR09,a,b,1.17518111453774,b,HIT,No,467.182165118071,468.357587424061,468,468,469,469,13
26,2,1,SNR07,a,b,1.41954882373648,b,HIT,No,19.5651976700792,20.9858914404689,20,506,21,507,14.5
26,2,2,SNR07,a,b,1.08394431841589,b,HIT,No,32.5724479535361,33.6574240353839,33,519,34,520,13
26,2,3,SNR07,a,b,1.09721669056125,b,HIT,No,45.5759899896995,46.673339820224,46,532,47,533,13
26,2,4,SNR11,a,b,0,None,None,No,58.5796252523458,0,59,545,0,0,13
26,2,5,SNR11,a,b,0,None,None,No,71.5877750145613,0,72,558,0,0,13
26,2,6,SNR09,a,b,1.39333393583729,b,HIT,No,84.5906875581418,85.984365890283,85,571,86,572,13
26,2,7,SNR11,a,b,1.21447479421113,b,HIT,No,99.0934591216127,100.309537582389,100,586,101,587,14.5
26,2,8,SNR11,a,b,0,None,None,No,114.096273306977,0,115,601,0,0,15
26,2,9,SNR09,a,b,0,None,None,No,128.599145509434,0,129,615,0,0,14.5
26,2,10,SNR07,a,b,1.25568375068178,b,HIT,No,142.601970813554,143.857954770616,143,629,144,630,14
26,2,11,SNR11,a,b,0,None,None,No,156.604941516775,0,157,643,0,0,14
26,2,12,SNR07,a,b,1.39810388167098,b,HIT,No,171.607847218045,173.006740531311,172,658,174,660,15
26,2,13,SNR07,a,b,0.996526101847849,b,HIT,No,186.110635602196,187.10734045941,187,673,188,674,14.5
26,2,14,SNR09,a,b,1.58513359754215,b,HIT,No,199.613322777168,201.198620590166,200,686,202,688,13.5
26,2,15,SNR09,a,b,1.12670334335235,b,HIT,No,213.116289346494,214.243259254867,214,700,215,701,13.5
26,2,16,SNR11,a,b,0,None,None,No,226.619110231621,0,227,713,0,0,13.5
26,2,17,SNR11,a,b,0,None,None,No,241.621938956895,0,242,728,0,0,15
26,2,18,SNR11,a,b,2.62543053101763,b,HIT,No,255.624786213428,258.250430566655,256,742,259,745,14
26,2,19,SNR09,a,b,0,None,None,No,269.62763432525,0,270,756,0,0,14
26,2,20,SNR09,a,b,0,None,None,No,284.630542592386,0,285,771,0,0,15
26,2,21,SNR09,a,b,1.30461710571944,b,HIT,No,299.633508448971,300.938264111482,300,786,301,787,15
26,2,22,SNR07,a,b,1.24906010884297,b,HIT,No,313.136609013547,314.385945380685,314,800,315,801,13.5
26,2,23,catch,catch,None,0,None,None,No,326.139881633727,0,327,813,0,0,13
26,2,24,SNR09,a,b,1.36752787600199,b,HIT,No,340.142781918168,341.510500238483,341,827,342,828,14
26,2,25,SNR11,a,b,0,None,None,No,354.645689472563,0,355,841,0,0,14.5
26,2,26,SNR09,a,b,0,None,None,No,369.148644923134,0,370,856,0,0,14.5
26,2,27,SNR07,a,b,1.09264574193003,b,HIT,No,384.151603652311,385.24440961835,385,871,386,872,15
26,2,28,SNR09,a,b,1.25460437617039,b,HIT,No,397.154396170359,398.409197548058,398,884,399,885,13
26,2,29,SNR07,a,b,1.07603061591908,b,HIT,No,410.657453970493,411.733688145155,411,897,412,898,13.5
26,2,30,catch,catch,None,0,None,None,No,424.660618254088,0,425,911,0,0,14
26,2,31,SNR07,a,b,1.14461280646901,b,HIT,No,438.663216906665,439.808054083904,439,925,440,926,14
26,2,32,catch,catch,None,0,None,None,No,453.666118046395,0,454,940,0,0,15
26,2,33,SNR11,a,b,0,None,None,No,467.16901875848,0,468,954,0,0,13.5
26,3,1,catch,catch,None,0,None,None,No,20.0076274658333,0,21,994,0,0,15
26,3,2,SNR11,a,b,0,None,None,No,34.0112638688648,0,35,1008,0,0,14
26,3,3,SNR11,a,b,1.31178186029319,b,HIT,No,48.0141273758855,49.3262385223802,49,1022,50,1023,14
26,3,4,SNR11,a,b,0,None,None,No,63.0171080574765,0,64,1037,0,0,15
26,3,5,SNR07,a,b,1.06048089469914,b,HIT,No,76.0218916879325,77.082372582633,77,1050,78,1051,13
26,3,6,SNR07,a,b,1.43433819317943,b,HIT,No,89.5244953296953,90.9591197595384,90,1063,91,1064,13.5
26,3,7,SNR09,a,b,1.22613637238464,b,HIT,No,102.527383640092,103.753881799653,103,1076,104,1077,13
26,3,8,SNR07,a,b,1.03742601395061,b,HIT,No,117.030134676631,118.067732888735,118,1091,119,1092,14.5
26,3,9,SNR09,a,b,1.38375840713343,b,HIT,No,130.033152135642,131.4171078294,131,1104,132,1105,13
26,3,10,SNR07,a,b,1.07147876873751,b,HIT,No,144.036066959993,145.107828829335,145,1118,146,1119,14
26,3,11,SNR07,a,b,1.15458233822937,b,HIT,No,157.538825409035,158.693568256468,158,1131,159,1132,13.5
26,3,12,SNR09,a,b,12.5059808922761,b,FA,No,172.541633037185,185.04784542764,173,1146,186,1159,15
26,3,13,SNR07,a,b,1.01616752485279,b,HIT,No,187.544425555232,188.560783239304,188,1161,189,1162,15
26,3,14,SNR09,a,b,1.38409539093482,b,HIT,No,201.54718129586,202.931461144086,202,1175,203,1176,14
26,3,15,SNR11,a,b,0,None,None,No,215.049977662707,0,216,1189,0,0,13.5
26,3,16,catch,catch,None,0,None,None,No,229.053641149885,0,230,1203,0,0,14
26,3,17,SNR09,a,b,1.23043391368446,b,HIT,No,242.555867609271,243.78662909858,243,1216,244,1217,13.5
26,3,18,SNR11,a,b,0,None,None,No,257.058730688647,0,258,1231,0,0,14.5
26,3,19,SNR07,a,b,1.00406404744899,b,HIT,No,270.061568822099,271.065868644171,271,1244,272,1245,13
26,3,20,SNR09,a,b,0,None,None,No,284.564347227881,0,285,1258,0,0,14.5
26,3,21,SNR11,a,b,0,None,None,No,298.067080018258,0,299,1272,0,0,13.5
26,3,22,catch,catch,None,8.98793757645944,b,FA,No,311.069765910297,320.057873689234,312,1285,321,1294,13
26,3,23,SNR09,a,b,0,None,None,No,325.572701119031,0,326,1299,0,0,14.5
26,3,24,SNR09,a,b,0,None,None,No,339.075475248369,0,340,1313,0,0,13.5
26,3,25,SNR11,a,b,0,None,None,No,352.078300552488,0,353,1326,0,0,13
26,3,26,SNR11,a,b,0,None,None,No,365.081184016248,0,366,1339,0,0,13
26,3,27,SNR11,a,b,1.50607639952977,b,HIT,No,379.584024858115,381.090327053898,380,1353,382,1355,14.5
26,3,28,SNR07,a,b,0,None,None,No,394.086813242266,0,395,1368,0,0,14.5
26,3,29,SNR09,a,b,0,None,None,No,408.089621725705,0,409,1382,0,0,14
26,3,30,SNR07,a,b,0,None,None,No,422.092490079362,0,423,1396,0,0,14
26,3,31,SNR09,a,b,1.54253907315797,b,HIT,No,437.09530939646,438.638028080273,438,1411,439,1412,15
26,3,32,SNR07,a,b,1.33253173763114,b,HIT,No,452.098149240489,453.4308739883,453,1426,454,1427,15
26,3,33,SNR11,a,b,0,None,None,No,467.100972263838,0,468,1441,0,0,15
26,4,1,SNR11,a,b,0,None,None,No,18.506991273488,0,19,1477,0,0,13.5
26,4,2,SNR09,a,b,1.31503195786718,b,HIT,No,33.509825415592,34.8250877312523,34,1492,35,1493,15
26,4,3,SNR09,a,b,0,None,None,No,47.012689350257,0,48,1506,0,0,13.5
26,4,4,SNR11,a,b,0,None,None,No,61.5154078858201,0,62,1520,0,0,14.5
26,4,5,SNR11,a,b,0,None,None,No,74.5182836519807,0,75,1533,0,0,13
26,4,6,SNR09,a,b,1.1845279960271,b,HIT,No,88.521088429168,89.7058108608568,89,1547,90,1548,14
26,4,7,SNR07,a,b,1.05127257000458,b,HIT,No,101.524009810733,102.575492211597,102,1560,103,1561,13
26,4,8,SNR07,a,b,1.05639945637995,b,HIT,No,115.526792920603,116.583360013593,116,1574,117,1575,14
26,4,9,SNR09,a,b,1.1561569249734,b,HIT,No,129.029600691301,130.185931810102,130,1588,131,1589,13.5
26,4,10,SNR11,a,b,0,None,None,No,144.032481019003,0,145,1603,0,0,15
26,4,11,SNR07,a,b,1.04583749455196,b,HIT,No,158.535246595452,159.581288789131,159,1617,160,1618,14.5
26,4,12,SNR07,a,b,1.24566461216818,b,HIT,No,172.038026711811,173.284069931836,173,1631,174,1632,13.5
26,4,13,SNR07,a,b,1.09443871242365,b,HIT,No,185.040895350564,186.135588083774,186,1644,187,1645,13
26,4,14,SNR11,a,b,0,None,None,No,200.043692715248,0,201,1659,0,0,15
26,4,15,catch,catch,None,0,None,None,No,214.04628652119,0,215,1673,0,0,14
26,4,16,SNR11,a,b,0,None,None,No,227.04903285364,0,228,1686,0,0,13
26,4,17,SNR09,a,b,1.39218727860498,b,HIT,No,240.052066278042,241.444418912489,241,1699,242,1700,13
26,4,18,SNR07,a,b,1.05989245598175,b,HIT,No,254.054833707617,255.11498275025,255,1713,256,1714,14
26,4,19,SNR09,a,b,4.54768990762022,b,FA,No,268.557636346582,273.105619618273,269,1727,274,1732,14.5
26,4,20,SNR07,a,b,1.02868866830795,b,HIT,No,283.060411046112,284.089397069837,284,1742,285,1743,14.5
26,4,21,SNR07,a,b,1.04650775590198,b,HIT,No,298.063207840604,299.10997417883,299,1757,300,1758,15
26,4,22,SNR07,a,b,1.12045004158063,b,HIT,No,313.065949041321,314.186660231093,314,1772,315,1773,15
26,4,23,SNR09,a,b,0,None,None,No,326.068705637237,0,327,1785,0,0,13
26,4,24,SNR11,a,b,0,None,None,No,340.0714816197,0,341,1799,0,0,14
26,4,25,SNR07,a,b,1.04716490282226,b,HIT,No,353.574338712055,354.621792417408,354,1812,355,1813,13.5
26,4,26,catch,catch,None,0,None,None,No,366.576921114145,0,367,1825,0,0,13
26,4,27,SNR11,a,b,0,None,None,No,380.579741856724,0,381,1839,0,0,14
26,4,28,SNR09,a,b,0,None,None,No,395.082665091415,0,396,1854,0,0,14.5
26,4,29,SNR11,a,b,0,None,None,No,409.585482840483,0,410,1868,0,0,14.5
26,4,30,catch,catch,None,0,None,None,No,424.588198382535,0,425,1883,0,0,15
26,4,31,SNR09,a,b,0,None,None,No,438.590958684703,0,439,1897,0,0,14
26,4,32,SNR11,a,b,0,None,None,No,452.093685488058,0,453,1911,0,0,13.5
26,4,33,SNR09,a,b,0,None,None,No,467.096534455168,0,468,1926,0,0,15
26,5,1,SNR09,a,b,0,None,None,No,20.007182715639,0,21,1966,0,0,15
26,5,2,SNR09,a,b,0,None,None,No,33.5099505728582,0,34,1979,0,0,13.5
26,5,3,catch,catch,None,0,None,None,No,48.5126122317137,0,49,1994,0,0,15
26,5,4,SNR11,a,b,13.5954937112037,b,FA,No,63.0154328317444,76.6111064386999,64,2009,77,2022,14.5
26,5,5,SNR09,a,b,0,None,None,No,77.0183288397408,0,78,2023,0,0,14
26,5,6,SNR07,a,b,1.01149080550204,b,HIT,No,90.5211357551502,91.5328024650565,91,2036,92,2037,13.5
26,5,7,SNR07,a,b,1.02218619238738,b,HIT,No,105.024003110971,106.046577034297,106,2051,107,2052,14.5
26,5,8,SNR07,a,b,1.1760381139502,b,HIT,No,118.526821145135,119.703122402951,119,2064,120,2065,13.5
26,5,9,SNR07,a,b,1.13600603491795,b,HIT,No,131.529593991539,132.66580814674,132,2077,133,2078,13
26,5,10,SNR09,a,b,0,None,None,No,146.032396630504,0,147,2092,0,0,14.5
26,5,11,SNR09,a,b,0,None,None,No,160.035190574033,0,161,2106,0,0,14
26,5,12,SNR09,a,b,0,None,None,No,174.538008608197,0,175,2120,0,0,14.5
26,5,13,catch,catch,None,0,None,None,No,187.54065971849,0,188,2133,0,0,13
26,5,14,SNR07,a,b,1.1315870426024,b,HIT,No,200.543551735139,201.675336634558,201,2146,202,2147,13
26,5,15,SNR11,a,b,6.50225667959239,b,FA,No,214.546291225278,221.048745191495,215,2160,222,2167,14
26,5,16,SNR09,a,b,0,None,None,No,227.549348597768,0,228,2173,0,0,13
26,5,17,SNR11,a,b,0,None,None,No,242.052100774692,0,243,2188,0,0,14.5
26,5,18,SNR11,a,b,0,None,None,No,257.054939478337,0,258,2203,0,0,15
26,5,19,SNR09,a,b,0,None,None,No,270.557667707173,0,271,2216,0,0,13.5
26,5,20,catch,catch,None,0,None,None,No,284.560342765554,0,285,2230,0,0,14
26,5,21,SNR09,a,b,1.29755612619192,b,HIT,No,299.563349390906,300.861049775815,300,2245,301,2246,15
26,5,22,SNR11,a,b,0,None,None,No,313.066135209191,0,314,2259,0,0,13.5
26,5,23,SNR11,a,b,0,None,None,No,326.568948966911,0,327,2272,0,0,13.5
26,5,24,SNR09,a,b,0,None,None,No,339.571779687859,0,340,2285,0,0,13
26,5,25,SNR07,a,b,1.01595683870437,b,HIT,No,354.07461026626,355.090757264182,355,2300,356,2301,14.5
26,5,26,SNR07,a,b,1.13568131025568,b,HIT,No,368.077417609314,369.21332956246,369,2314,370,2315,14
26,5,27,SNR07,a,b,1.19351166485649,b,HIT,No,383.080221816308,384.274414291078,384,2329,385,2330,15
26,5,28,SNR11,a,b,0,None,None,No,398.087111452973,0,399,2344,0,0,15
26,5,29,SNR07,a,b,1.19496679626172,b,HIT,No,413.090143451894,414.285346878067,414,2359,415,2360,15
26,5,30,SNR07,a,b,1.10401167526288,b,HIT,No,427.092954216104,428.197135808748,428,2373,429,2374,14
26,5,31,SNR11,a,b,0,None,None,No,441.095790068785,0,442,2387,0,0,14
26,5,32,SNR11,a,b,0,None,None,No,454.098735113341,0,455,2400,0,0,13
26,5,33,SNR11,a,b,0,None,None,No,467.102111793663,0,468,2413,0,0,13
26,6,1,SNR07,a,b,1.33836794354647,b,HIT,No,20.0079065750899,21.346409369176,21,2452,22,2453,15
26,6,2,SNR07,a,b,0.897111033880719,b,HIT,No,35.0106754301461,35.9079894525781,36,2467,36,2467,15
26,6,3,SNR07,a,b,1.00909343089734,b,HIT,No,49.0134696587711,50.0227307262799,50,2481,51,2482,14
26,6,4,SNR11,a,b,0,None,None,No,63.0163325955992,0,64,2495,0,0,14
26,6,5,SNR07,a,b,0.982064593123141,b,HIT,No,76.0192659512081,77.0016236233057,77,2508,78,2509,13
26,6,6,SNR09,a,b,0,None,None,No,89.0220792812837,0,90,2521,0,0,13
26,6,7,SNR11,a,b,4.48721899128941,b,FA,No,102.024886054145,106.512368189299,103,2534,107,2538,13
26,6,8,SNR09,a,b,1.15814746718934,b,HIT,No,117.027707937109,118.186079204878,118,2549,119,2550,15
26,6,9,SNR07,a,b,0.977123304424822,b,HIT,No,131.03042661522,132.007807646681,132,2563,133,2564,14
26,6,10,SNR09,a,b,0,None,None,No,145.533263180642,0,146,2577,0,0,14.5
26,6,11,catch,catch,None,0,None,None,No,158.53591315055,0,159,2590,0,0,13
26,6,12,SNR07,a,b,0.963893696720334,b,HIT,No,173.038667038052,174.002772846404,174,2605,175,2606,14.5
26,6,13,SNR11,a,b,0,None,None,No,186.041557344123,0,187,2618,0,0,13
26,6,14,SNR11,a,b,0,None,None,No,201.048002230593,0,202,2633,0,0,15
26,6,15,SNR11,a,b,0,None,None,No,216.050749133236,0,217,2648,0,0,15
26,6,16,SNR09,a,b,1.04576137384538,b,HIT,No,230.053498031553,231.099584415155,231,2662,232,2663,14
26,6,17,SNR11,a,b,0,None,None,No,244.556358545062,0,245,2676,0,0,14.5
26,6,18,catch,catch,None,0,None,None,No,258.558973733225,0,259,2690,0,0,14
26,6,19,catch,catch,None,0,None,None,No,273.561584359846,0,274,2705,0,0,15
26,6,20,SNR09,a,b,1.22470433377566,b,HIT,No,287.564276524004,288.789332951684,288,2719,289,2720,14
26,6,20,SNR09,a,b,11.4084089717508,b,FA,No,0,298.975066904969,0,0,299,2730,14
26,6,21,SNR07,a,b,1.06061574524028,b,HIT,No,301.067089996627,302.127912721766,302,2733,303,2734,13.5
26,6,22,SNR11,a,b,0,None,None,No,314.570018077955,0,315,2746,0,0,13.5
26,6,23,SNR09,a,b,1.03324906837588,b,HIT,No,328.07283297606,329.106303849341,329,2760,330,2761,13.5
26,6,23,SNR09,a,b,8.4020231002105,b,FA,No,0,336.477108336871,0,0,337,2768,13.5
26,6,24,SNR09,a,b,0.945075916863061,b,HIT,No,341.075582159473,342.020892425477,342,2773,343,2774,13
26,6,25,SNR09,a,b,1.29598581589016,b,HIT,No,356.078370401076,357.374557494939,357,2788,358,2789,15
26,6,26,SNR09,a,b,0,None,None,No,369.581126284252,0,370,2801,0,0,13.5
26,6,27,SNR09,a,b,1.15692525944542,b,HIT,No,384.083923221291,385.241030372162,385,2816,386,2817,14.5
26,6,28,SNR11,a,b,0,None,None,No,398.586819656932,0,399,2830,0,0,14.5
26,6,29,SNR11,a,b,0,None,None,No,412.089578391071,0,413,2844,0,0,13.5
26,6,30,SNR07,a,b,0.987488264723652,b,HIT,No,426.592365919933,427.579990745775,427,2858,428,2859,14.5
26,6,31,SNR11,a,b,0,None,None,No,440.595216027429,0,441,2872,0,0,14
26,6,32,SNR07,a,b,1.06317334395499,b,HIT,No,453.598054445977,454.661387728943,454,2885,455,2886,13
26,6,33,SNR07,a,b,0,None,None,No,467.100837413299,0,468,2899,0,0,13.5
26,0,0,None,None,None,0,None,None,No,0,0,0,0,0,0,0
26,0,0,None,None,None,0,None,None,No,0,0,0,0,0,0,0
26,0,0,None,None,None,0,None,None,No,0,0,0,0,0,0,0
26,0,0,None,None,None,0,None,None,No,0,0,0,0,0,0,0
26,0,0,None,None,None,0,None,None,No,0,0,0,0,0,0,0
26,0,0,None,None,None,0,None,None,No,0,0,0,0,0,0,0
26,0,0,None,None,None,0,None,None,No,0,0,0,0,0,0,0
26,0,0,None,None,None,0,None,None,No,0,0,0,0,0,0,0
26,0,0,None,None,None,0,None,None,No,0,0,0,0,0,0,0
26,0,0,None,None,None,0,None,None,No,0,0,0,0,0,0,0
26,0,0,None,None,None,0,None,None,No,0,0,0,0,0,0,0
26,0,0,None,None,None,0,None,None,No,0,0,0,0,0,0,0
26,0,0,None,None,None,0,None,None,No,0,0,0,0,0,0,0
26,0,0,None,None,None,0,None,None,No,0,0,0,0,0,0,0
26,0,0,None,None,None,0,None,None,No,0,0,0,0,0,0,0
26,0,0,None,None,None,0,None,None,No,0,0,0,0,0,0,0
26,0,0,None,None,None,0,None,None,No,0,0,0,0,0,0,0
26,0,0,None,None,None,0,None,None,No,0,0,0,0,0,0,0
26,0,0,None,None,None,0,None,None,No,0,0,0,0,0,0,0
26,0,0,None,None,None,0,None,None,No,0,0,0,0,0,0,0
