subject,block,trial,SNR,stim,correct_resp,RT,response,status,IsDouble,time_stim,time_resp,volume_stim,volume_stim_global,volume_resp,volume_resp_global,ISI
6,1,1,catch,catch,None,0,None,None,No,19.08081457474,0,20,20,0,0,14
6,1,2,SNR11,a,b,0,None,None,No,32.0884005008627,0,33,33,0,0,13
6,1,3,SNR07,a,b,0.947114907623472,b,HIT,No,46.0921777834544,47.0403951706434,47,47,48,48,14
6,1,4,SNR07,a,b,0.893694398479056,b,HIT,No,59.5975313808963,60.4914398890621,60,60,61,61,13.5
6,1,5,SNR09,a,b,1.40805856398765,b,HIT,No,73.6048721214934,75.0131656074272,74,74,76,76,14
6,1,6,SNR09,a,b,0,None,None,No,86.6094434060489,0,87,87,0,0,13
6,1,7,SNR11,a,b,0,None,None,No,101.61234771413,0,102,102,0,0,15
6,1,8,catch,catch,None,0,None,None,No,116.616240176899,0,117,117,0,0,15
6,1,9,SNR07,a,b,1.07454181667708,b,HIT,No,131.118664092409,132.193975677596,132,132,133,133,14.5
6,1,10,SNR11,a,b,0,None,None,No,145.621543311738,0,146,146,0,0,14.5
6,1,11,SNR09,a,b,2.16233648121124,b,HIT,No,160.124520605278,162.287764558033,161,161,163,163,14.5
6,1,12,SNR09,a,b,1.24020284255494,b,HIT,No,173.627434036541,174.867924829539,174,174,175,175,13.5
6,1,13,SNR07,a,b,0,None,None,No,188.130424729754,0,189,189,0,0,14.5
6,1,14,SNR07,a,b,1.17000252027901,b,HIT,No,202.13332647194,203.30353027243,203,203,204,204,14
6,1,15,SNR11,a,b,0,None,None,No,217.136292646601,0,218,218,0,0,15
6,1,16,SNR11,a,b,0,None,None,No,230.139255114969,0,231,231,0,0,13
6,1,17,SNR11,a,b,0,None,None,No,244.14210240316,0,245,245,0,0,14
6,1,18,catch,catch,None,0,None,None,No,257.144739858157,0,258,258,0,0,13
6,1,19,SNR11,a,b,0,None,None,No,271.647572036078,0,272,272,0,0,14.5
6,1,20,SNR11,a,b,0,None,None,No,285.650441847125,0,286,286,0,0,14
6,1,21,SNR09,a,b,0,None,None,No,300.653253497885,0,301,301,0,0,15
6,1,22,SNR09,a,b,0,None,None,No,314.656177477828,0,315,315,0,0,14
6,1,23,SNR07,a,b,0,None,None,No,327.659067816036,0,328,328,0,0,13
6,1,24,SNR11,a,b,0,None,None,No,341.162157438758,0,342,342,0,0,13.5
6,1,25,SNR07,a,b,1.06043566616972,b,HIT,No,354.165105367054,355.225707816401,355,355,356,356,13
6,1,26,SNR07,a,b,0.986328341052285,b,HIT,No,367.668013381428,368.654577784823,368,368,369,369,13.5
6,1,27,SNR09,a,b,1.50524839574609,b,HIT,No,382.17107192831,383.676463443979,383,383,384,384,14.5
6,1,27,SNR09,a,b,9.04694846656457,b,FA,No,0,391.220597978987,0,0,392,392,14.5
6,1,28,SNR11,a,b,0,None,None,No,395.674008452628,0,396,396,0,0,13.5
6,1,29,SNR09,a,b,1.27390644404477,b,HIT,No,409.176882825267,410.451054696899,410,410,411,411,13.5
6,1,30,SNR07,a,b,1.17187647895298,b,HIT,No,424.179747219425,425.351835812368,425,425,426,426,15
6,1,31,SNR09,a,b,0.937866281516108,b,HIT,No,439.182673765263,440.120724506122,440,440,441,441,15
6,1,32,SNR07,a,b,0,None,None,No,454.185621693559,0,455,455,0,0,15
6,1,33,SNR09,a,b,1.5676398441301,b,HIT,No,467.188585872524,468.756390504136,468,468,469,469,13
6,2,1,SNR07,a,b,1.13937200574401,b,HIT,No,19.5085324562914,20.6479634776203,20,511,21,512,14.5
6,2,2,SNR07,a,b,1.11043840312414,b,HIT,No,32.5111385503491,33.6217163671032,33,524,34,525,13
6,2,3,SNR07,a,b,1.27432896142818,b,HIT,No,45.5140688024797,46.7885571344997,46,537,47,538,13
6,2,4,SNR11,a,b,0,None,None,No,58.517008462892,0,59,550,0,0,13
6,2,5,SNR11,a,b,0,None,None,No,71.5199107752766,0,72,563,0,0,13
6,2,6,SNR09,a,b,1.75899232170013,b,HIT,No,84.5227959816943,86.2819570822694,85,576,87,578,13
6,2,7,SNR11,a,b,0,None,None,No,99.0256432698854,0,100,591,0,0,14.5
6,2,8,SNR11,a,b,0,None,None,No,114.028539024983,0,115,606,0,0,15
6,2,9,SNR09,a,b,0,None,None,No,128.531531143694,0,129,620,0,0,14.5
6,2,10,SNR07,a,b,1.21273664679757,b,HIT,No,142.534401810039,143.747284427754,143,634,144,635,14
6,2,11,SNR11,a,b,0,None,None,No,156.537297280037,0,157,648,0,0,14
6,2,12,SNR07,a,b,0,None,None,No,171.540227817267,0,172,663,0,0,15
6,2,13,SNR07,a,b,0,None,None,No,186.043063416381,0,187,678,0,0,14.5
6,2,14,SNR09,a,b,0,None,None,No,199.545976847644,0,200,691,0,0,13.5
6,2,15,SNR09,a,b,1.19132909941618,b,HIT,No,213.04885264578,214.240405833363,214,705,215,706,13.5
6,2,16,SNR11,a,b,0,None,None,No,226.551740988292,0,227,718,0,0,13.5
6,2,17,SNR11,a,b,0,None,None,No,241.554679793406,0,242,733,0,0,15
6,2,18,SNR11,a,b,0,None,None,No,255.557500282248,0,256,747,0,0,14
6,2,19,SNR09,a,b,0,None,None,No,269.560394611848,0,270,761,0,0,14
6,2,20,SNR09,a,b,0,None,None,No,284.563296924233,0,285,776,0,0,15
6,2,21,SNR09,a,b,0,None,None,No,299.566196955822,0,300,791,0,0,15
6,2,22,SNR07,a,b,0,None,None,No,313.068970688356,0,314,805,0,0,13.5
6,2,23,catch,catch,None,0,None,None,No,326.072026669343,0,327,818,0,0,13
6,2,24,SNR09,a,b,0,None,None,No,340.07477759392,0,341,832,0,0,14
6,2,25,SNR11,a,b,0,None,None,No,354.577627162907,0,355,846,0,0,14.5
6,2,26,SNR09,a,b,1.1500062151681,b,HIT,No,369.080500395148,370.230655717327,370,861,371,862,14.5
6,2,27,SNR07,a,b,0,None,None,No,384.083368495599,0,385,876,0,0,15
6,2,28,SNR09,a,b,0,None,None,No,397.086223481475,0,398,889,0,0,13
6,2,29,SNR07,a,b,0,None,None,No,410.589149457114,0,411,902,0,0,13.5
6,2,30,catch,catch,None,0,None,None,No,424.591905228382,0,425,916,0,0,14
6,2,31,SNR07,a,b,1.06284618200516,b,HIT,No,438.594761354656,439.657771183744,439,930,440,931,14
6,2,32,catch,catch,None,0,None,None,No,453.597526249106,0,454,945,0,0,15
6,2,33,SNR11,a,b,0,None,None,No,467.100433123082,0,468,959,0,0,13.5
6,3,1,catch,catch,None,0,None,None,No,20.0069800897949,0,21,998,0,0,15
6,3,2,SNR11,a,b,0,None,None,No,34.0104719878388,0,35,1012,0,0,14
6,3,3,SNR11,a,b,0,None,None,No,48.0132326057976,0,49,1026,0,0,14
6,3,4,SNR11,a,b,0,None,None,No,63.0161180973147,0,64,1041,0,0,15
6,3,5,SNR07,a,b,0,None,None,No,76.0210568750592,0,77,1054,0,0,13
6,3,6,SNR07,a,b,0,None,None,No,89.5236775091888,0,90,1067,0,0,13.5
6,3,7,SNR09,a,b,1.08613110925398,b,HIT,No,102.526662215314,103.613124325027,103,1080,104,1081,13
6,3,8,SNR07,a,b,1.12602193897146,b,HIT,No,117.029500665422,118.155723029307,118,1095,119,1096,14.5
6,3,9,SNR09,a,b,1.29209749945039,b,HIT,No,130.032469976177,131.324719718732,131,1108,132,1109,13
6,3,10,SNR07,a,b,1.22192625731623,b,HIT,No,144.035348625307,145.257449648586,145,1122,146,1123,14
6,3,11,SNR07,a,b,1.65582423961132,b,HIT,No,157.538258920477,159.194284725398,158,1135,160,1137,13.5
6,3,12,SNR09,a,b,0,None,None,No,172.541164654055,0,173,1150,0,0,15
6,3,13,SNR07,a,b,0,None,None,No,187.544001393566,0,188,1165,0,0,15
6,3,14,SNR09,a,b,0,None,None,No,201.547004060957,0,202,1179,0,0,14
6,3,15,SNR11,a,b,0,None,None,No,215.049863893523,0,216,1193,0,0,13.5
6,3,16,catch,catch,None,0,None,None,No,229.053015382826,0,230,1207,0,0,14
6,3,17,SNR09,a,b,0,None,None,No,242.555821046497,0,243,1220,0,0,13.5
6,3,18,SNR11,a,b,0,None,None,No,257.058815731103,0,258,1235,0,0,14.5
6,3,19,SNR07,a,b,0,None,None,No,270.061727736869,0,271,1248,0,0,13
6,3,20,SNR09,a,b,0,None,None,No,284.564604105204,0,285,1262,0,0,14.5
6,3,21,SNR11,a,b,0,None,None,No,298.067482469235,0,299,1276,0,0,13.5
6,3,22,catch,catch,None,0,None,None,No,311.070199752078,0,312,1289,0,0,13
6,3,23,SNR09,a,b,0,None,None,No,325.573162220446,0,326,1303,0,0,14.5
6,3,24,SNR09,a,b,1.17587956030911,b,HIT,No,339.076081353698,340.252167326007,340,1317,341,1318,13.5
6,3,25,SNR11,a,b,0,None,None,No,352.079011890928,0,353,1330,0,0,13
6,3,26,SNR11,a,b,0,None,None,No,365.082166801424,0,366,1343,0,0,13
6,3,27,SNR11,a,b,0,None,None,No,379.58500126014,0,380,1357,0,0,14.5
6,3,28,SNR07,a,b,1.11147645021629,b,HIT,No,394.087831157264,395.199522287364,395,1372,396,1373,14.5
6,3,29,SNR09,a,b,0,None,None,No,408.091079865479,0,409,1386,0,0,14
6,3,30,SNR07,a,b,1.2588645971482,b,HIT,No,422.093996717935,423.353089109543,423,1400,424,1401,14
6,3,31,SNR09,a,b,1.3499188036767,b,HIT,No,437.096832317049,438.446923890992,438,1415,439,1416,15
6,3,32,SNR07,a,b,1.09891012182925,b,HIT,No,452.099831563246,453.198893072882,453,1430,454,1431,15
6,3,33,SNR11,a,b,0,None,None,No,467.102833945537,0,468,1445,0,0,15
6,4,1,SNR11,a,b,9.48926030377879,b,FA,No,18.5070550709498,27.996492136387,19,1483,28,1492,13.5
6,4,2,SNR09,a,b,0,None,None,No,33.509943128362,0,34,1498,0,0,15
6,4,3,SNR09,a,b,1.29229336277058,b,HIT,No,47.012854563929,48.3052947529157,48,1512,49,1513,13.5
6,4,4,SNR11,a,b,0,None,None,No,61.5157776885733,0,62,1526,0,0,14.5
6,4,5,SNR11,a,b,0,None,None,No,74.5185881989355,0,75,1539,0,0,13
6,4,6,SNR09,a,b,0,None,None,No,88.5214614311764,0,89,1553,0,0,14
6,4,7,SNR07,a,b,1.07502791123625,b,HIT,No,101.524462958169,102.599647389002,102,1566,103,1567,13
6,4,8,SNR07,a,b,1.35677031362138,b,HIT,No,115.527437115615,116.88455154427,116,1580,117,1581,14
6,4,9,SNR09,a,b,0,None,None,No,129.030360240259,0,130,1594,0,0,13.5
6,4,10,SNR11,a,b,1.98962123968158,b,HIT,No,144.03322834071,146.023057417889,145,1609,147,1611,15
6,4,11,SNR07,a,b,0,None,None,No,158.536187958084,0,159,1623,0,0,14.5
6,4,12,SNR07,a,b,1.02331856898309,b,HIT,No,172.039153562546,173.06274041011,173,1637,174,1638,13.5
6,4,13,SNR07,a,b,0,None,None,No,185.042118311709,0,186,1650,0,0,13
6,4,14,SNR11,a,b,0,None,None,No,200.045016347602,0,201,1665,0,0,15
6,4,15,catch,catch,None,0,None,None,No,214.04773077945,0,215,1679,0,0,14
6,4,16,SNR11,a,b,0,None,None,No,227.050564953067,0,228,1692,0,0,13
6,4,17,SNR09,a,b,0,None,None,No,240.053445882993,0,241,1705,0,0,13
6,4,18,SNR07,a,b,0,None,None,No,254.056293741383,0,255,1719,0,0,14
6,4,19,SNR09,a,b,0,None,None,No,268.559152433552,0,269,1733,0,0,14.5
6,4,20,SNR07,a,b,1.23720046026574,b,HIT,No,283.061982615776,284.299473877478,284,1748,285,1749,14.5
6,4,21,SNR07,a,b,0,None,None,No,298.064878655973,0,299,1763,0,0,15
6,4,22,SNR07,a,b,1.21409942216087,b,HIT,No,313.067785815048,314.282064279662,314,1778,315,1779,15
6,4,23,SNR09,a,b,1.12657246600793,b,HIT,No,326.070672446963,327.197396015678,327,1791,328,1792,13
6,4,24,SNR11,a,b,1.40416980751252,b,HIT,No,340.073491795408,341.477814416225,341,1805,342,1806,14
6,4,25,SNR07,a,b,0.9980191290324,b,HIT,No,353.576357044864,354.574574318014,354,1818,355,1819,13.5
6,4,26,catch,catch,None,0,None,None,No,366.579162423437,0,367,1831,0,0,13
6,4,27,SNR11,a,b,1.32406484529929,b,HIT,No,380.582103224247,381.906353669287,381,1845,382,1846,14
6,4,28,SNR09,a,b,0,None,None,No,395.085127559195,0,396,1860,0,0,14.5
6,4,29,SNR11,a,b,1.95286735919217,b,HIT,No,409.587994519248,411.541010415253,410,1874,412,1876,14.5
6,4,30,catch,catch,None,0,None,None,No,424.590777089865,0,425,1889,0,0,15
6,4,31,SNR09,a,b,0,None,None,No,438.593680257547,0,439,1903,0,0,14
6,4,32,SNR11,a,b,0,None,None,No,452.096504737783,0,453,1917,0,0,13.5
6,4,33,SNR09,a,b,1.38766597064387,b,HIT,No,467.099384242211,468.487234957298,468,1932,469,1933,15
6,5,1,SNR09,a,b,0,None,None,No,20.0070918487787,0,21,1976,0,0,15
6,5,2,SNR09,a,b,0,None,None,No,33.5100568830419,0,34,1989,0,0,13.5
6,5,3,catch,catch,None,0,None,None,No,48.51284886194,0,49,2004,0,0,15
6,5,4,SNR11,a,b,0,None,None,No,63.0162227288123,0,64,2019,0,0,14.5
6,5,5,SNR09,a,b,1.55860418731208,b,HIT,No,77.0192313832911,78.577988954107,78,2033,79,2034,14
6,5,6,SNR07,a,b,1.00333423804841,b,HIT,No,90.522212098024,91.5257096980569,91,2046,92,2047,13.5
6,5,7,SNR07,a,b,1.05929469817602,b,HIT,No,105.025155464729,106.084607822901,106,2061,107,2062,14.5
6,5,8,SNR07,a,b,0,None,None,No,118.528100542031,0,119,2074,0,0,13.5
6,5,9,SNR07,a,b,0,None,None,No,131.530953817311,0,132,2087,0,0,13
6,5,10,SNR09,a,b,1.41093892371464,b,HIT,No,146.033951352911,147.445075876367,147,2102,148,2103,14.5
6,5,11,SNR09,a,b,0.949815369598582,b,HIT,No,160.036875903053,160.986905667435,161,2116,161,2116,14
6,5,12,SNR09,a,b,0,None,None,No,174.539794466106,0,175,2130,0,0,14.5
6,5,13,catch,catch,None,0,None,None,No,187.542768053352,0,188,2143,0,0,13
6,5,14,SNR07,a,b,1.42351351998514,b,HIT,No,200.545725104831,201.969412535481,201,2156,202,2157,13
6,5,15,SNR11,a,b,2.12940892041843,b,HIT,No,214.548641387089,216.67823020526,215,2170,217,2172,14
6,5,16,SNR09,a,b,1.33757542306012,b,HIT,No,227.551446195462,228.889158181157,228,2183,229,2184,13
6,5,17,SNR11,a,b,0,None,None,No,242.05428493067,0,243,2198,0,0,14.5
6,5,18,SNR11,a,b,0,None,None,No,257.057144763236,0,258,2213,0,0,15
6,5,19,SNR09,a,b,0,None,None,No,270.55998577924,0,271,2226,0,0,13.5
6,5,20,catch,catch,None,0,None,None,No,284.562665999154,0,285,2240,0,0,14
6,5,21,SNR09,a,b,0,None,None,No,299.565537235699,0,300,2255,0,0,15
6,5,22,SNR11,a,b,0,None,None,No,313.068340903674,0,314,2269,0,0,13.5
6,5,23,SNR11,a,b,0,None,None,No,326.571209289224,0,327,2282,0,0,13.5
6,5,24,SNR09,a,b,0,None,None,No,339.574046028736,0,340,2295,0,0,13
6,5,25,SNR07,a,b,0,None,None,No,354.07686053049,0,355,2310,0,0,14.5
6,5,26,SNR07,a,b,0,None,None,No,368.079801901499,0,369,2324,0,0,14
6,5,27,SNR07,a,b,0,None,None,No,383.082613552259,0,384,2339,0,0,15
6,5,28,SNR11,a,b,0,None,None,No,398.085463691445,0,399,2354,0,0,15
6,5,29,SNR07,a,b,1.05829485441245,b,HIT,No,413.088358021045,414.146922864634,414,2369,415,2370,15
6,5,29,SNR07,a,b,13.4312391448384,b,FA,No,0,426.521871974382,0,0,427,2382,15
6,5,30,SNR07,a,b,1.24023363329616,b,HIT,No,427.091268316214,428.3317137784,428,2383,429,2384,14
6,5,31,SNR11,a,b,1.57112832098028,b,HIT,No,441.094248460748,442.665549837094,442,2397,443,2398,14
6,5,32,SNR11,a,b,0,None,None,No,454.097156475122,0,455,2410,0,0,13
6,5,33,SNR11,a,b,0,None,None,No,467.100014597092,0,468,2423,0,0,13
6,6,1,SNR07,a,b,1.15167461714009,b,HIT,No,20.0067420317555,21.1585386714594,21,2463,22,2464,15
6,6,2,SNR07,a,b,1.30846591408044,b,HIT,No,35.0095616653001,36.3182388380715,36,2478,37,2479,15
6,6,3,SNR07,a,b,1.20460732112588,b,HIT,No,49.0124636925852,50.2172235419159,50,2492,51,2493,14
6,6,4,SNR11,a,b,0,None,None,No,63.0154378500308,0,64,2506,0,0,14
6,6,5,SNR07,a,b,1.09404233384703,b,HIT,No,76.0184713081617,77.1126869824732,77,2519,78,2520,13
6,6,6,SNR09,a,b,1.29911465217447,b,HIT,No,89.0212929374024,90.3205638240731,90,2532,91,2533,13
6,6,7,SNR11,a,b,0,None,None,No,102.024117417638,0,103,2545,0,0,13
6,6,8,SNR09,a,b,0,None,None,No,117.026940187276,0,118,2560,0,0,15
6,6,9,SNR07,a,b,1.18321516911601,b,HIT,No,131.029812279119,132.213208771484,132,2574,133,2575,14
6,6,10,SNR09,a,b,1.89996402044926,b,HIT,No,145.532733693167,147.432885023954,146,2588,148,2590,14.5
6,6,11,catch,catch,None,0,None,None,No,158.535491175032,0,159,2601,0,0,13
6,6,12,SNR07,a,b,1.21889736077719,b,HIT,No,173.038408312588,174.257557701277,174,2616,175,2617,14.5
6,6,13,SNR11,a,b,0,None,None,No,186.041236499116,0,187,2629,0,0,13
6,6,14,SNR11,a,b,2.05952676912784,b,HIT,No,201.044234604915,203.103897936678,202,2644,204,2646,15
6,6,15,SNR11,a,b,0,None,None,No,216.047146325581,0,217,2659,0,0,15
6,6,16,SNR09,a,b,1.28962796802807,b,HIT,No,230.050022123717,231.339870758718,231,2673,232,2674,14
6,6,17,SNR11,a,b,0,None,None,No,244.552856297334,0,245,2687,0,0,14.5
6,6,18,catch,catch,None,0,None,None,No,258.555543644734,0,259,2701,0,0,14
6,6,19,catch,catch,None,0,None,None,No,273.558150023891,0,274,2716,0,0,15
6,6,20,SNR09,a,b,1.12907734976034,b,HIT,No,287.561070582641,288.690302171203,288,2730,289,2731,14
6,6,21,SNR07,a,b,1.58579383660617,b,HIT,No,301.063957784754,302.649994526091,302,2744,303,2745,13.5
6,6,22,SNR11,a,b,0,None,None,No,314.566835008388,0,315,2757,0,0,13.5
6,6,23,SNR09,a,b,0,None,None,No,328.069743022761,0,329,2771,0,0,13.5
6,6,24,SNR09,a,b,0,None,None,No,341.072665577207,0,342,2784,0,0,13
6,6,25,SNR09,a,b,0,None,None,No,356.075498040226,0,357,2799,0,0,15
6,6,26,SNR09,a,b,0,None,None,No,369.578339911528,0,370,2812,0,0,13.5
6,6,27,SNR09,a,b,1.07367055276154,b,HIT,No,384.081165247062,385.155070721769,385,2827,386,2828,14.5
6,6,28,SNR11,a,b,0,None,None,No,398.584154514778,0,399,2841,0,0,14.5
6,6,29,SNR11,a,b,1.16552816953663,b,HIT,No,412.086971012229,413.252711010655,413,2855,414,2856,13.5
6,6,30,SNR07,a,b,1.06957167799374,b,HIT,No,426.589867907724,427.65959296922,427,2869,428,2870,14.5
6,6,31,SNR11,a,b,1.28253925534409,b,HIT,No,440.592734867777,441.875489373203,441,2883,442,2884,14
6,6,32,SNR07,a,b,1.87236040675634,b,HIT,No,453.595580160271,455.468149830024,454,2896,456,2898,13
6,6,33,SNR07,a,b,0,None,None,No,467.098407206402,0,468,2910,0,0,13.5
6,0,0,None,None,None,0,None,None,No,0,0,0,0,0,0,0
6,0,0,None,None,None,0,None,None,No,0,0,0,0,0,0,0
6,0,0,None,None,None,0,None,None,No,0,0,0,0,0,0,0
6,0,0,None,None,None,0,None,None,No,0,0,0,0,0,0,0
6,0,0,None,None,None,0,None,None,No,0,0,0,0,0,0,0
6,0,0,None,None,None,0,None,None,No,0,0,0,0,0,0,0
6,0,0,None,None,None,0,None,None,No,0,0,0,0,0,0,0
6,0,0,None,None,None,0,None,None,No,0,0,0,0,0,0,0
6,0,0,None,None,None,0,None,None,No,0,0,0,0,0,0,0
6,0,0,None,None,None,0,None,None,No,0,0,0,0,0,0,0
6,0,0,None,None,None,0,None,None,No,0,0,0,0,0,0,0
6,0,0,None,None,None,0,None,None,No,0,0,0,0,0,0,0
6,0,0,None,None,None,0,None,None,No,0,0,0,0,0,0,0
6,0,0,None,None,None,0,None,None,No,0,0,0,0,0,0,0
6,0,0,None,None,None,0,None,None,No,0,0,0,0,0,0,0
6,0,0,None,None,None,0,None,None,No,0,0,0,0,0,0,0
6,0,0,None,None,None,0,None,None,No,0,0,0,0,0,0,0
6,0,0,None,None,None,0,None,None,No,0,0,0,0,0,0,0
6,0,0,None,None,None,0,None,None,No,0,0,0,0,0,0,0
6,0,0,None,None,None,0,None,None,No,0,0,0,0,0,0,0
