subject,block,trial,SNR,stim,correct_resp,RT,response,status,IsDouble,time_stim,time_resp,volume_stim,volume_stim_global,volume_resp,volume_resp_global,ISI
8,1,1,catch,catch,None,7.37635649544063,b,FA,No,19.0837469152416,26.4601464604535,20,20,27,27,14
8,1,2,SNR11,a,b,7.89093326202055,b,FA,No,32.0904527011308,39.9820576536221,33,33,41,41,13
8,1,2,SNR11,a,b,11.2779478544671,b,FA,No,0,43.3711910930879,0,0,44,44,13
8,1,3,SNR07,a,b,1.56138184633892,b,HIT,No,46.0939876290353,47.6556343312517,47,47,48,48,14
8,1,3,SNR07,a,b,10.8921061544643,b,FA,No,0,56.9896614976531,0,0,58,58,14
8,1,4,SNR07,a,b,1.11346978875554,b,HIT,No,59.5976377364601,60.7113689599175,60,60,61,61,13.5
8,1,5,SNR09,a,b,9.3515318876216,b,FA,No,73.6052076538502,82.9567592132212,74,74,83,83,14
8,1,6,SNR09,a,b,1.03393804482221,b,HIT,No,86.6122552720289,87.6456938254654,87,87,88,88,13
8,1,7,SNR11,a,b,0,None,None,No,101.615612869088,0,102,102,0,0,15
8,1,8,catch,catch,None,0,None,None,No,116.619703452649,0,117,117,0,0,15
8,1,9,SNR07,a,b,1.08854140532821,b,HIT,No,131.122102835925,132.21082784425,132,132,133,133,14.5
8,1,10,SNR11,a,b,7.33524824037522,b,FA,No,145.624987170598,152.9606117401,146,146,153,153,14.5
8,1,10,SNR11,a,b,10.5541600333891,b,FA,No,0,156.181386077191,0,0,157,157,14.5
8,1,11,SNR09,a,b,0.0882235212557134,b,HIT,No,160.127879773108,160.216319968708,161,161,161,161,14.5
8,1,12,SNR09,a,b,4.72005161410925,b,FA,No,173.630947425681,178.351162685941,174,174,179,179,13.5
8,1,13,SNR07,a,b,0,None,None,No,188.133898473244,0,189,189,0,0,14.5
8,1,14,SNR07,a,b,7.34950256131924,b,FA,No,202.136763421265,209.486448160093,203,203,210,210,14
8,1,15,SNR11,a,b,1.30329846777022,b,HIT,No,217.139795721708,218.443280928552,218,218,219,219,15
8,1,15,SNR11,a,b,5.34224397075195,b,FA,No,0,222.484455896507,0,0,223,223,15
8,1,15,SNR11,a,b,10.4752597811366,b,FA,No,0,227.620294460435,0,0,228,228,15
8,1,16,SNR11,a,b,0,None,None,No,230.1428739229,0,231,231,0,0,13
8,1,17,SNR11,a,b,7.74567791700792,b,FA,No,244.145767950899,251.891677367338,245,245,252,252,14
8,1,18,catch,catch,None,0,None,None,No,257.148554782117,0,258,258,0,0,13
8,1,19,SNR11,a,b,4.50954792608536,b,FA,No,271.651492430083,276.161316615957,272,272,277,277,14.5
8,1,20,SNR11,a,b,0.507539697020547,b,HIT,No,285.654528721895,286.162213533708,286,286,287,287,14
8,1,20,SNR11,a,b,4.17436639859807,b,FA,No,0,289.830906200536,0,0,290,290,14
8,1,20,SNR11,a,b,7.43721062570876,b,FA,No,0,293.093824838178,0,0,294,294,14
8,1,20,SNR11,a,b,10.5023751499612,b,FA,No,0,296.158851375084,0,0,297,297,14
8,1,21,SNR09,a,b,7.69517711417211,b,FA,No,300.657516832175,308.352861298769,301,301,309,309,15
8,1,22,SNR09,a,b,1.05207311732738,b,HIT,No,314.660480709141,315.712688677739,315,315,316,316,14
8,1,22,SNR09,a,b,5.16495817044779,b,FA,No,0,319.827462789032,0,0,320,320,14
8,1,22,SNR09,a,b,9.7227018834692,b,FA,No,0,324.385388394466,0,0,325,325,14
8,1,23,SNR07,a,b,0.995769148310501,b,HIT,No,327.663518141345,328.659390495067,328,328,329,329,13
8,1,23,SNR07,a,b,4.89457168043555,b,FA,No,0,332.560088357517,0,0,333,333,13
8,1,23,SNR07,a,b,8.91153614128052,b,FA,No,0,336.576967289016,0,0,337,337,13
8,1,23,SNR07,a,b,12.2904528151703,b,FA,No,0,339.955961509513,0,0,340,340,13
8,1,24,SNR11,a,b,2.30261480319132,b,HIT,No,341.166390501909,343.469158687729,342,342,344,344,13.5
8,1,24,SNR11,a,b,5.86142905853922,b,FA,No,0,347.029814389913,0,0,348,348,13.5
8,1,25,SNR07,a,b,2.44945386660947,b,HIT,No,354.169350672603,356.618939390484,355,355,357,357,13
8,1,25,SNR07,a,b,11.5684134990388,b,FA,No,0,365.740107960844,0,0,366,366,13
8,1,26,SNR07,a,b,1.06815890668258,b,HIT,No,367.67229858409,368.740640808674,368,368,369,369,13.5
8,1,27,SNR09,a,b,1.26382724440373,b,HIT,No,382.175331739827,383.439358267609,383,383,384,384,14.5
8,1,27,SNR09,a,b,11.2957650429016,b,FA,No,0,393.47310786277,0,0,394,394,14.5
8,1,28,SNR11,a,b,3.86883418938851,b,FA,No,395.67825142663,399.547252113145,396,396,400,400,13.5
8,1,29,SNR09,a,b,0,None,None,No,409.181106396227,0,410,410,0,0,13.5
8,1,30,SNR07,a,b,1.04230338513844,b,HIT,No,424.184097642583,425.226694963576,425,425,426,426,15
8,1,30,SNR07,a,b,11.4932813847081,b,FA,No,0,435.679395524192,0,0,436,436,15
8,1,30,SNR07,a,b,14.6370556465336,b,FA,No,0,438.823274702016,0,0,439,439,15
8,1,31,SNR09,a,b,3.64635411202289,b,FA,No,439.186904715746,442.833420478234,440,440,443,443,15
8,1,31,SNR09,a,b,13.2570362142669,b,FA,No,0,452.445997340608,0,0,453,453,15
8,1,32,SNR07,a,b,1.09511690151157,b,HIT,No,454.189902519352,455.285166816438,455,455,456,456,15
8,1,32,SNR07,a,b,8.49388009013637,b,FA,No,0,462.686098459103,0,0,463,463,15
8,1,33,SNR09,a,b,0.797722809649713,b,HIT,No,467.192893765709,467.990909655921,468,468,469,469,13
8,2,1,SNR07,a,b,1.12919949092793,b,HIT,No,19.5081874392742,20.6375137987346,20,504,21,505,14.5
8,2,2,SNR07,a,b,1.00199853573758,b,HIT,No,32.510906132112,33.5131070873038,33,517,34,518,13
8,2,3,SNR07,a,b,1.11284114805494,b,HIT,No,45.5139675125329,46.6269269761841,46,530,47,531,13
8,2,4,SNR11,a,b,1.52559978879981,b,HIT,No,58.5169644608458,60.0427053730676,59,543,61,545,13
8,2,5,SNR11,a,b,0,None,None,No,71.5200247008754,0,72,556,0,0,13
8,2,6,SNR09,a,b,0,None,None,No,84.5230259256556,0,85,569,0,0,13
8,2,7,SNR11,a,b,0,None,None,No,99.0259960747732,0,100,584,0,0,14.5
8,2,8,SNR11,a,b,0,None,None,No,114.02906714852,0,115,599,0,0,15
8,2,9,SNR09,a,b,9.66106145340746,b,FA,No,128.532019336475,138.193260686607,129,613,139,623,14.5
8,2,10,SNR07,a,b,0,None,None,No,142.534889131159,0,143,627,0,0,14
8,2,11,SNR11,a,b,0,None,None,No,156.537865837526,0,157,641,0,0,14
8,2,12,SNR07,a,b,0,None,None,No,171.540825152926,0,172,656,0,0,15
8,2,13,SNR07,a,b,1.22336986766823,b,HIT,No,186.043823526728,187.267395243656,187,671,188,672,14.5
8,2,14,SNR09,a,b,0,None,None,No,199.546642288902,0,200,684,0,0,13.5
8,2,15,SNR09,a,b,10.5961746144349,b,FA,No,213.049583072944,223.646056469896,214,698,224,708,13.5
8,2,16,SNR11,a,b,0,None,None,No,226.552475960552,0,227,711,0,0,13.5
8,2,17,SNR11,a,b,0,None,None,No,241.555385954029,0,242,726,0,0,15
8,2,18,SNR11,a,b,0,None,None,No,255.558309632201,0,256,740,0,0,14
8,2,19,SNR09,a,b,0,None,None,No,269.561297457384,0,270,754,0,0,14
8,2,20,SNR09,a,b,0,None,None,No,284.564248790045,0,285,769,0,0,15
8,2,21,SNR09,a,b,1.14594499664781,b,HIT,No,299.567193565456,300.713433068154,300,784,301,785,15
8,2,22,SNR07,a,b,0,None,None,No,313.069975264913,0,314,798,0,0,13.5
8,2,23,catch,catch,None,0,None,None,No,326.072948550107,0,327,811,0,0,13
8,2,24,SNR09,a,b,0,None,None,No,340.075686344499,0,341,825,0,0,14
8,2,25,SNR11,a,b,0,None,None,No,354.578679301442,0,355,839,0,0,14.5
8,2,26,SNR09,a,b,0,None,None,No,369.081715308157,0,370,854,0,0,14.5
8,2,27,SNR07,a,b,1.03991283989308,b,HIT,No,384.084723660382,385.124863438143,385,869,386,870,15
8,2,28,SNR09,a,b,1.13053888049944,b,HIT,No,397.087875987009,398.218687706126,398,882,399,883,13
8,2,29,SNR07,a,b,1.18832763897808,b,HIT,No,410.59091370431,411.779418674135,411,895,412,896,13.5
8,2,30,catch,catch,None,0,None,None,No,424.593753848821,0,425,909,0,0,14
8,2,31,SNR07,a,b,10.1357322224394,b,FA,No,438.596792136318,448.732883582015,439,923,449,933,14
8,2,32,catch,catch,None,0,None,None,No,453.59958495459,0,454,938,0,0,15
8,2,33,SNR11,a,b,0,None,None,No,467.102542274305,0,468,952,0,0,13.5
8,3,1,catch,catch,None,0,None,None,No,20.0074450445437,0,21,994,0,0,15
8,3,2,SNR11,a,b,0,None,None,No,34.0110161798716,0,35,1008,0,0,14
8,3,3,SNR11,a,b,0,None,None,No,48.0138266742085,0,49,1022,0,0,14
8,3,4,SNR11,a,b,0,None,None,No,63.0168068017498,0,64,1037,0,0,15
8,3,5,SNR07,a,b,1.10117722592986,b,HIT,No,76.0220856730361,77.1232882726721,77,1050,78,1051,13
8,3,6,SNR07,a,b,0,None,None,No,89.5246398644303,0,90,1063,0,0,13.5
8,3,7,SNR09,a,b,0,None,None,No,102.527842653371,0,103,1076,0,0,13
8,3,8,SNR07,a,b,0.998721051166285,b,HIT,No,117.03071700962,118.02967469198,118,1091,119,1092,14.5
8,3,9,SNR09,a,b,0,None,None,No,130.033623581923,0,131,1104,0,0,13
8,3,10,SNR07,a,b,1.2240694977263,b,HIT,No,144.036517609922,145.260872205471,145,1118,146,1119,14
8,3,11,SNR07,a,b,1.26015660993471,b,HIT,No,157.539463525725,158.79976696104,158,1131,159,1132,13.5
8,3,12,SNR09,a,b,5.17269971672613,b,FA,No,172.54237637018,177.715252847557,173,1146,178,1151,15
8,3,13,SNR07,a,b,1.146727305073,b,HIT,No,187.545273534255,188.692157358033,188,1161,189,1162,15
8,3,14,SNR09,a,b,0,None,None,No,201.548244823764,0,202,1175,0,0,14
8,3,15,SNR11,a,b,1.20543607422587,b,HIT,No,215.051162514882,216.256803289345,216,1189,217,1190,13.5
8,3,16,catch,catch,None,0,None,None,No,229.054438288866,0,230,1203,0,0,14
8,3,17,SNR09,a,b,0,None,None,No,242.557709501284,0,243,1216,0,0,13.5
8,3,18,SNR11,a,b,0,None,None,No,257.060583287338,0,258,1231,0,0,14.5
8,3,19,SNR07,a,b,0,None,None,No,270.063465341228,0,271,1244,0,0,13
8,3,20,SNR09,a,b,0.992045485647395,b,HIT,No,284.56628952026,285.558480405797,285,1258,286,1259,14.5
8,3,21,SNR11,a,b,0,None,None,No,298.069229449009,0,299,1272,0,0,13.5
8,3,22,catch,catch,None,0,None,None,No,311.072047355889,0,312,1285,0,0,13
8,3,23,SNR09,a,b,1.44945500700123,b,HIT,No,325.575050861452,327.024652693832,326,1299,328,1301,14.5
8,3,24,SNR09,a,b,0,None,None,No,339.078021010569,0,340,1313,0,0,13.5
8,3,25,SNR11,a,b,0,None,None,No,352.080958943633,0,353,1326,0,0,13
8,3,26,SNR11,a,b,0,None,None,No,365.083909421001,0,366,1339,0,0,13
8,3,27,SNR11,a,b,0,None,None,No,379.58687016189,0,380,1353,0,0,14.5
8,3,28,SNR07,a,b,0,None,None,No,394.089802107899,0,395,1368,0,0,14.5
8,3,29,SNR09,a,b,0,None,None,No,408.092717233137,0,409,1382,0,0,14
8,3,30,SNR07,a,b,0,None,None,No,422.095567070973,0,423,1396,0,0,14
8,3,31,SNR09,a,b,0,None,None,No,437.098689462328,0,438,1411,0,0,15
8,3,32,SNR07,a,b,0.999506210569962,b,HIT,No,452.101616846772,453.101348284623,453,1426,454,1427,15
8,3,32,SNR07,a,b,5.75144544596151,b,FA,No,0,457.856137072752,0,0,458,1431,15
8,3,32,SNR07,a,b,14.2623564247351,b,FA,No,0,466.36632618384,0,0,467,1440,15
8,3,33,SNR11,a,b,0,None,None,No,467.104527125347,0,468,1441,0,0,15
8,4,1,SNR11,a,b,0,None,None,No,18.5064663037181,0,19,1476,0,0,13.5
8,4,2,SNR09,a,b,0,None,None,No,33.5093363834999,0,34,1491,0,0,15
8,4,3,SNR09,a,b,1.41054941771654,b,HIT,No,47.0123464463127,48.4232117524165,48,1505,49,1506,13.5
8,4,4,SNR11,a,b,1.19329689402912,b,HIT,No,61.515363636571,62.7088384316427,62,1519,63,1520,14.5
8,4,5,SNR11,a,b,2.64612745925297,b,HIT,No,74.5182964378738,77.1646576773422,75,1532,78,1535,13
8,4,6,SNR09,a,b,0,None,None,No,88.5211696537316,0,89,1546,0,0,14
8,4,7,SNR07,a,b,0,None,None,No,101.524311716836,0,102,1559,0,0,13
8,4,8,SNR07,a,b,0.34474228297222,b,HIT,No,115.527953841522,115.873189628825,116,1573,116,1573,14
8,4,9,SNR09,a,b,0,None,None,No,129.031119282648,0,130,1587,0,0,13.5
8,4,10,SNR11,a,b,0,None,None,No,144.033982520082,0,145,1602,0,0,15
8,4,11,SNR07,a,b,0,None,None,No,158.536916176679,0,159,1616,0,0,14.5
8,4,12,SNR07,a,b,0,None,None,No,172.039862377579,0,173,1630,0,0,13.5
8,4,13,SNR07,a,b,0,None,None,No,185.042717917372,0,186,1643,0,0,13
8,4,14,SNR11,a,b,0,None,None,No,200.045484791742,0,201,1658,0,0,15
8,4,15,catch,catch,None,0,None,None,No,214.04821916496,0,215,1672,0,0,14
8,4,16,SNR11,a,b,0,None,None,No,227.05122038974,0,228,1685,0,0,13
8,4,17,SNR09,a,b,0,None,None,No,240.054092750304,0,241,1698,0,0,13
8,4,18,SNR07,a,b,1.03122961550616,b,HIT,No,254.057022415531,255.088469560676,255,1712,256,1713,14
8,4,19,SNR09,a,b,0,None,None,No,268.559998836801,0,269,1726,0,0,14.5
8,4,20,SNR07,a,b,0.950938941170534,b,HIT,No,283.062922800071,284.013982052522,284,1741,285,1742,14.5
8,4,21,SNR07,a,b,1.09179494168166,b,HIT,No,298.06585873745,299.157816184889,299,1756,300,1757,15
8,4,22,SNR07,a,b,0,None,None,No,313.068876783002,0,314,1771,0,0,15
8,4,23,SNR09,a,b,0,None,None,No,326.07184550663,0,327,1784,0,0,13
8,4,24,SNR11,a,b,0,None,None,No,340.074709599358,0,341,1798,0,0,14
8,4,25,SNR07,a,b,0,None,None,No,353.577495575282,0,354,1811,0,0,13.5
8,4,26,catch,catch,None,0,None,None,No,366.580293525314,0,367,1824,0,0,13
8,4,27,SNR11,a,b,0,None,None,No,380.583257117182,0,381,1838,0,0,14
8,4,28,SNR09,a,b,0,None,None,No,395.086163689485,0,396,1853,0,0,14.5
8,4,29,SNR11,a,b,0,None,None,No,409.588972473235,0,410,1867,0,0,14.5
8,4,30,catch,catch,None,0,None,None,No,424.5917530323,0,425,1882,0,0,15
8,4,31,SNR09,a,b,0,None,None,No,438.594727742983,0,439,1896,0,0,14
8,4,32,SNR11,a,b,0,None,None,No,452.097629468623,0,453,1910,0,0,13.5
8,4,33,SNR09,a,b,0,None,None,No,467.100444809623,0,468,1925,0,0,15
8,5,1,SNR09,a,b,1.04221586010681,b,HIT,No,20.0080089680371,21.0504229711299,21,1963,22,1964,15
8,5,2,SNR09,a,b,0,None,None,No,33.5109557391332,0,34,1976,0,0,13.5
8,5,3,catch,catch,None,0,None,None,No,48.5136693002103,0,49,1991,0,0,15
8,5,4,SNR11,a,b,0,None,None,No,63.0167167108378,0,64,2006,0,0,14.5
8,5,5,SNR09,a,b,0,None,None,No,77.0197504367699,0,78,2020,0,0,14
8,5,6,SNR07,a,b,1.02929123540889,b,HIT,No,90.5226843784639,91.5521959944896,91,2033,92,2034,13.5
8,5,6,SNR07,a,b,14.0310511442676,b,FA,No,0,104.555737764742,0,0,105,2047,13.5
8,5,7,SNR07,a,b,1.22612391263647,b,HIT,No,105.025567572746,106.251922699717,106,2048,107,2049,14.5
8,5,8,SNR07,a,b,1.11996260656997,b,HIT,No,118.52850807169,119.648724700419,119,2061,120,2062,13.5
8,5,9,SNR07,a,b,1.00496668917003,b,HIT,No,131.531467957286,132.536561800085,132,2074,133,2075,13
8,5,10,SNR09,a,b,1.37878153752172,b,HIT,No,146.034532473782,147.413574590714,147,2089,148,2090,14.5
8,5,11,SNR09,a,b,0,None,None,No,160.037435624912,0,161,2103,0,0,14
8,5,12,SNR09,a,b,1.10039634299392,b,HIT,No,174.540352745834,175.640910169097,175,2117,176,2118,14.5
8,5,13,catch,catch,None,0,None,None,No,187.543159818997,0,188,2130,0,0,13
8,5,14,SNR07,a,b,0,None,None,No,200.546195255516,0,201,2143,0,0,13
8,5,15,SNR11,a,b,0,None,None,No,214.549179659525,0,215,2157,0,0,14
8,5,16,SNR09,a,b,0,None,None,No,227.552099916523,0,228,2170,0,0,13
8,5,17,SNR11,a,b,0,None,None,No,242.055115396195,0,243,2185,0,0,14.5
8,5,18,SNR11,a,b,0,None,None,No,257.058032517117,0,258,2200,0,0,15
8,5,19,SNR09,a,b,0,None,None,No,270.56085669615,0,271,2213,0,0,13.5
8,5,20,catch,catch,None,0,None,None,No,284.563619864248,0,285,2227,0,0,14
8,5,21,SNR09,a,b,0,None,None,No,299.566525011062,0,300,2242,0,0,15
8,5,22,SNR11,a,b,0,None,None,No,313.069351755975,0,314,2256,0,0,13.5
8,5,23,SNR11,a,b,0,None,None,No,326.572434518732,0,327,2269,0,0,13.5
8,5,24,SNR09,a,b,0,None,None,No,339.575410654904,0,340,2282,0,0,13
8,5,25,SNR07,a,b,0,None,None,No,354.078179524959,0,355,2297,0,0,14.5
8,5,26,SNR07,a,b,1.12288799532871,b,HIT,No,368.081151099565,369.204349851521,369,2311,370,2312,14
8,5,27,SNR07,a,b,0,None,None,No,383.084052825205,0,384,2326,0,0,15
8,5,28,SNR11,a,b,0,None,None,No,398.086971086519,0,399,2341,0,0,15
8,5,29,SNR07,a,b,1.3234745555892,b,HIT,No,413.089900751746,414.413513864877,414,2356,415,2357,15
8,5,30,SNR07,a,b,1.1124511342332,b,HIT,No,427.092826140505,428.205465154204,428,2370,429,2371,14
8,5,31,SNR11,a,b,0,None,None,No,441.095654310907,0,442,2384,0,0,14
8,5,32,SNR11,a,b,0,None,None,No,454.098468511516,0,455,2397,0,0,13
8,5,33,SNR11,a,b,0,None,None,No,467.101261899983,0,468,2410,0,0,13
8,6,1,SNR07,a,b,0,None,None,No,20.0069255963106,0,21,2448,0,0,15
8,6,2,SNR07,a,b,1.11015695205424,b,HIT,No,35.0099613179274,36.120275643979,36,2463,37,2464,15
8,6,3,SNR07,a,b,1.22486862692313,b,HIT,No,49.0127718122642,50.237806936316,50,2477,51,2478,14
8,6,4,SNR11,a,b,0,None,None,No,63.0156453132199,0,64,2491,0,0,14
8,6,5,SNR07,a,b,1.07139647756048,b,HIT,No,76.0187069787385,77.090297893013,77,2504,78,2505,13
8,6,6,SNR09,a,b,1.19640645598338,b,HIT,No,89.0216323674979,90.2182381068592,90,2517,91,2518,13
8,6,7,SNR11,a,b,0,None,None,No,102.024624469148,0,103,2530,0,0,13
8,6,8,SNR09,a,b,1.41694045560871,b,HIT,No,117.027607447667,118.444693018068,118,2545,119,2546,15
8,6,9,SNR07,a,b,1.10684154947194,b,HIT,No,131.03045129845,132.137450507018,132,2559,133,2560,14
8,6,10,SNR09,a,b,0,None,None,No,145.5332469677,0,146,2573,0,0,14.5
8,6,11,catch,catch,None,0,None,None,No,158.535968226418,0,159,2586,0,0,13
8,6,12,SNR07,a,b,0,None,None,No,173.038904163797,0,174,2601,0,0,14.5
8,6,13,SNR11,a,b,0,None,None,No,186.041902537599,0,187,2614,0,0,13
8,6,14,SNR11,a,b,0,None,None,No,201.044691364501,0,202,2629,0,0,15
8,6,15,SNR11,a,b,0,None,None,No,216.04758795838,0,217,2644,0,0,15
8,6,16,SNR09,a,b,0,None,None,No,230.050560673378,0,231,2658,0,0,14
8,6,17,SNR11,a,b,0,None,None,No,244.553498321344,0,245,2672,0,0,14.5
8,6,18,catch,catch,None,0,None,None,No,258.556134050715,0,259,2686,0,0,14
8,6,19,catch,catch,None,0,None,None,No,273.558869849423,0,274,2701,0,0,15
8,6,20,SNR09,a,b,0,None,None,No,287.561794382889,0,288,2715,0,0,14
8,6,21,SNR07,a,b,1.19149393539919,b,HIT,No,301.064728609681,302.256420973164,302,2729,303,2730,13.5
8,6,22,SNR11,a,b,1.28314946424325,b,HIT,No,314.567636037277,315.851082288355,315,2742,316,2743,13.5
8,6,23,SNR09,a,b,0,None,None,No,328.070687154176,0,329,2756,0,0,13.5
8,6,24,SNR09,a,b,1.44992655880014,b,HIT,No,341.073557519056,342.523644587931,342,2769,343,2770,13
8,6,25,SNR09,a,b,0,None,None,No,356.076549335608,0,357,2784,0,0,15
8,6,26,SNR09,a,b,0,None,None,No,369.57944821027,0,370,2797,0,0,13.5
8,6,27,SNR09,a,b,0,None,None,No,384.082264691661,0,385,2812,0,0,14.5
8,6,28,SNR11,a,b,0,None,None,No,398.585263635659,0,399,2826,0,0,14.5
8,6,29,SNR11,a,b,0,None,None,No,412.088128298582,0,413,2840,0,0,13.5
8,6,30,SNR07,a,b,1.10396690812559,b,HIT,No,426.591014628939,427.69510926089,427,2854,428,2855,14.5
8,6,31,SNR11,a,b,0,None,None,No,440.593936311427,0,441,2868,0,0,14
8,6,32,SNR07,a,b,0,None,None,No,453.596870253121,0,454,2881,0,0,13
0,6,33,SNR07,a,b,0,,,,467.150435002258,0,468,2895,0,0,13.5
