subject,block,trial,SNR,stim,correct_resp,RT,response,status,IsDouble,time_stim,time_resp,volume_stim,volume_stim_global,volume_resp,volume_resp_global,ISI
17,1,1,catch,catch,None,1.50288007462223,b,HIT,No,19.0637718999141,20.5667246749011,20,20,21,21,14
17,1,2,SNR11,a,b,0,None,None,No,32.0701395960939,0,33,33,0,0,13
17,1,3,SNR07,a,b,0.869295587690431,b,HIT,No,46.0776368562882,46.9473629441422,47,47,47,47,14
17,1,4,SNR07,a,b,0.82729074555391,b,HIT,No,59.5807156452314,60.4085603390175,60,60,61,61,13.5
17,1,5,SNR09,a,b,0.776353452602052,b,HIT,No,73.5849992644434,74.3610593497224,74,74,75,75,14
17,1,6,SNR09,a,b,0.886114174340037,b,HIT,No,86.5882459769617,87.475371113952,87,87,88,88,13
17,1,7,SNR11,a,b,0,None,None,No,101.591104384031,0,102,102,0,0,15
17,1,8,catch,catch,None,0,None,None,No,116.59507981074,0,117,117,0,0,15
17,1,9,SNR07,a,b,0.974439694051398,b,HIT,No,131.097571865018,132.072180908144,132,132,133,133,14.5
17,1,10,SNR11,a,b,0.972606789699057,b,HIT,No,145.600419153209,146.573341547999,146,146,147,147,14.5
17,1,11,SNR09,a,b,0.92094648454804,b,HIT,No,160.103275564582,161.024345782296,161,161,162,162,14.5
17,1,12,SNR09,a,b,0.847375716606621,b,HIT,No,173.606138533243,174.45364397009,174,174,175,175,13.5
17,1,13,SNR07,a,b,0.816373717490933,b,HIT,No,188.108892308815,188.92546531081,189,189,189,189,14.5
17,1,14,SNR07,a,b,0.795516982238041,b,HIT,No,202.111777230133,202.907454438257,203,203,203,203,14
17,1,15,SNR11,a,b,0,None,None,No,217.114537848092,0,218,218,0,0,15
17,1,16,SNR11,a,b,0,None,None,No,230.117474942609,0,231,231,0,0,13
17,1,17,SNR11,a,b,0,None,None,No,244.120355017237,0,245,245,0,0,14
17,1,18,catch,catch,None,0,None,None,No,257.122961111295,0,258,258,0,0,13
17,1,19,SNR11,a,b,0,None,None,No,271.625734558729,0,272,272,0,0,14.5
17,1,20,SNR11,a,b,0,None,None,No,285.628642573102,0,286,286,0,0,14
17,1,21,SNR09,a,b,1.01312483820948,b,HIT,No,300.631642959697,301.644949691351,301,301,302,302,15
17,1,22,SNR09,a,b,1.7850572536845,b,HIT,No,314.634513340944,316.419771874825,315,315,317,317,14
17,1,23,SNR07,a,b,0.978001726558432,b,HIT,No,327.637478090107,328.615672543897,328,328,329,329,13
17,1,24,SNR11,a,b,0,None,None,No,341.140418320719,0,342,342,0,0,13.5
17,1,25,SNR07,a,b,0.863889817046584,b,HIT,No,354.143334888076,355.00740146678,355,355,356,356,13
17,1,26,SNR07,a,b,0.838161017323728,b,HIT,No,367.646189303753,368.484516248958,368,368,369,369,13.5
17,1,27,SNR09,a,b,0,None,None,No,382.149161465502,0,383,383,0,0,14.5
17,1,28,SNR11,a,b,0,None,None,No,395.652080883854,0,396,396,0,0,13.5
17,1,29,SNR09,a,b,0,None,None,No,409.155021684664,0,410,410,0,0,13.5
17,1,30,SNR07,a,b,0.839764701726381,b,HIT,No,424.158049440806,424.998391754012,425,425,426,426,15
17,1,31,SNR09,a,b,0,None,None,No,439.160825454135,0,440,440,0,0,15
17,1,32,SNR07,a,b,0.87734194942459,b,HIT,No,454.163801892376,455.041282685226,455,455,456,456,15
17,1,33,SNR09,a,b,0.789132750287536,b,HIT,No,467.166670563026,467.956174227694,468,468,468,468,13
17,2,1,SNR07,a,b,0.869220891632722,b,HIT,No,19.508954403475,20.3787050098815,20,504,21,505,14.5
17,2,1,SNR07,a,b,7.18214490578976,b,FA,No,0,26.6932817455385,0,0,27,511,14.5
17,2,2,SNR07,a,b,0.916249186047935,b,HIT,No,32.5116443167706,33.4280340568397,33,517,34,518,13
17,2,3,SNR07,a,b,0.886023227634723,b,HIT,No,45.514603078846,46.4010992864531,46,530,47,531,13
17,2,4,SNR11,a,b,1.29204903254868,b,HIT,No,58.5175473008495,59.8097716695538,59,543,60,544,13
17,2,5,SNR11,a,b,1.66113051054708,b,HIT,No,71.5203503986261,73.1816371436685,72,556,74,558,13
17,2,6,SNR09,a,b,0.929920274793403,b,HIT,No,84.5232490047178,85.453354879249,85,569,86,570,13
17,2,7,SNR11,a,b,1.16200918704271,b,HIT,No,99.0261099776824,100.188259148556,100,584,101,585,14.5
17,2,8,SNR11,a,b,0,None,None,No,114.029037663918,0,115,599,0,0,15
17,2,9,SNR09,a,b,1.05188895489846,b,HIT,No,128.531892934894,129.583924439523,129,613,130,614,14.5
17,2,10,SNR07,a,b,0.92677534277027,b,HIT,No,142.53474278898,143.461693182816,143,627,144,628,14
17,2,11,SNR11,a,b,0,None,None,No,156.537643960966,0,157,641,0,0,14
17,2,12,SNR07,a,b,0.953687875415199,b,HIT,No,171.540432233572,172.494321389187,172,656,173,657,15
17,2,13,SNR07,a,b,0.848607631312916,b,HIT,No,186.043318580387,186.892219293934,187,671,187,671,14.5
17,2,14,SNR09,a,b,0.952640990231885,b,HIT,No,199.546215475882,200.499083120174,200,684,201,685,13.5
17,2,15,SNR09,a,b,11.1794529968029,b,FA,No,213.049005459084,224.228991306748,214,698,225,709,13.5
17,2,16,SNR11,a,b,0,None,None,No,226.551811978054,0,227,711,0,0,13.5
17,2,17,SNR11,a,b,0,None,None,No,241.554887916003,0,242,726,0,0,15
17,2,18,SNR11,a,b,0,None,None,No,255.557749459166,0,256,740,0,0,14
17,2,19,SNR09,a,b,0.978295378998155,b,HIT,No,269.560655192744,270.539298963264,270,754,271,755,14
17,2,20,SNR09,a,b,2.67934494410292,b,HIT,No,284.563554654134,287.243057543332,285,769,288,772,15
17,2,21,SNR09,a,b,0.931175852761953,b,HIT,No,299.566479489375,300.497817563723,300,784,301,785,15
17,2,22,SNR07,a,b,0.823167067137547,b,HIT,No,313.069427417672,313.892749293809,314,798,314,798,13.5
17,2,23,catch,catch,None,0,None,None,No,326.072498794029,0,327,811,0,0,13
17,2,24,SNR09,a,b,1.0209519584605,b,HIT,No,340.075316146778,341.096421203644,341,825,342,826,14
17,2,25,SNR11,a,b,0,None,None,No,354.578248109506,0,355,839,0,0,14.5
17,2,26,SNR09,a,b,0.972581415844616,b,HIT,No,369.081143864603,370.053992133536,370,854,371,855,14.5
17,2,27,SNR07,a,b,0.991405962224235,b,HIT,No,384.08413284722,385.075776582387,385,869,386,870,15
17,2,28,SNR09,a,b,0,None,None,No,397.087131238119,0,398,882,0,0,13
17,2,29,SNR07,a,b,0.891184953143238,b,HIT,No,410.590063771045,411.481432043125,411,895,412,896,13.5
17,2,30,catch,catch,None,0,None,None,No,424.592798444954,0,425,909,0,0,14
17,2,31,SNR07,a,b,0.832211562039447,b,HIT,No,438.595689068261,439.428286654951,439,923,440,924,14
17,2,32,catch,catch,None,0,None,None,No,453.598517539888,0,454,938,0,0,15
17,2,33,SNR11,a,b,0,None,None,No,467.10144693672,0,468,952,0,0,13.5
17,3,1,catch,catch,None,0,None,None,No,20.0059155284546,0,21,991,0,0,15
17,3,2,SNR11,a,b,1.38845370041963,b,HIT,No,34.0095220364768,35.3983822887099,35,1005,36,1006,14
17,3,3,SNR11,a,b,1.00722213921836,b,HIT,No,48.0122698249603,49.0196610281598,49,1019,50,1020,14
17,3,4,SNR11,a,b,0.902041255030781,b,HIT,No,63.0152659350635,63.9175133169952,64,1034,64,1034,15
17,3,5,SNR07,a,b,0.802885947676259,b,HIT,No,76.0205830397759,76.8234433285019,77,1047,77,1047,13
17,3,6,SNR07,a,b,0.861832824521116,b,HIT,No,89.5232857825467,90.3852657183879,90,1060,91,1061,13.5
17,3,7,SNR09,a,b,0.926436074427329,b,HIT,No,102.526372269175,103.4530184619,103,1073,104,1074,13
17,3,8,SNR07,a,b,0.853318614594173,b,HIT,No,117.029319057073,117.883018849635,118,1088,118,1088,14.5
17,3,9,SNR09,a,b,0.862491119158221,b,HIT,No,130.032182595933,130.894828809185,131,1101,131,1101,13
17,3,10,SNR07,a,b,0.891130784249981,b,HIT,No,144.035211777572,144.926541846327,145,1115,145,1115,14
17,3,11,SNR07,a,b,0.80715901820804,b,HIT,No,157.538175671438,158.345481800962,158,1128,159,1129,13.5
17,3,12,SNR09,a,b,0.985918653139379,b,HIT,No,172.541108489463,173.527207325459,173,1143,174,1144,15
17,3,13,SNR07,a,b,0.784834591002436,b,HIT,No,187.544034750202,188.329146742967,188,1158,189,1159,15
17,3,14,SNR09,a,b,1.02181352899061,b,HIT,No,201.546961296039,202.568935621123,202,1172,203,1173,14
17,3,15,SNR11,a,b,0,None,None,No,215.049874157103,0,216,1186,0,0,13.5
17,3,16,catch,catch,None,0,None,None,No,229.052890794367,0,230,1200,0,0,14
17,3,17,SNR09,a,b,0.877734816458542,b,HIT,No,242.555634876558,243.433600053371,243,1213,244,1214,13.5
17,3,18,SNR11,a,b,6.52740233347868,b,FA,No,257.058500696213,263.586496606746,258,1228,264,1234,14.5
17,3,19,SNR07,a,b,0.904470302324626,b,HIT,No,270.061416693371,270.966102815984,271,1241,271,1241,13
17,3,20,SNR09,a,b,0.839230425350252,b,HIT,No,284.564442738916,285.404056052832,285,1255,286,1256,14.5
17,3,21,SNR11,a,b,12.6190506872663,b,FA,No,298.067276912533,310.686815975148,299,1269,311,1281,13.5
17,3,22,catch,catch,None,0,None,None,No,311.069979370204,0,312,1282,0,0,13
17,3,23,SNR09,a,b,0,None,None,No,325.57283948787,0,326,1296,0,0,14.5
17,3,24,SNR09,a,b,0,None,None,No,339.075673661487,0,340,1310,0,0,13.5
17,3,25,SNR11,a,b,0,None,None,No,352.078667490794,0,353,1323,0,0,13
17,3,26,SNR11,a,b,0,None,None,No,365.081452627305,0,366,1336,0,0,13
17,3,27,SNR11,a,b,1.04118004941847,b,HIT,No,379.584479528149,380.625818092867,380,1350,381,1351,14.5
17,3,28,SNR07,a,b,0.900520819675876,b,HIT,No,394.087464234274,394.98830892692,395,1365,396,1366,14.5
17,3,29,SNR09,a,b,1.05075682500319,b,HIT,No,408.090388784416,409.141392790633,409,1379,410,1380,14
17,3,30,SNR07,a,b,1.06379527806712,b,HIT,No,422.093372635243,423.157296778262,423,1393,424,1394,14
17,3,31,SNR09,a,b,0.931409349213936,b,HIT,No,437.096368745346,438.027988783047,438,1408,439,1409,15
17,3,32,SNR07,a,b,0.899498738159309,b,HIT,No,452.099196361675,452.999199440749,453,1423,454,1424,15
17,3,33,SNR11,a,b,0,None,None,No,467.102012574026,0,468,1438,0,0,15
17,4,1,SNR11,a,b,0,None,None,No,18.5569882436391,0,19,1478,0,0,13.5
17,4,2,SNR09,a,b,0,None,None,No,33.5627461120988,0,34,1493,0,0,15
17,4,3,SNR09,a,b,0.819821710203541,b,HIT,No,47.0662009472144,47.8870019740286,48,1507,48,1507,13.5
17,4,4,SNR11,a,b,0,None,None,No,61.571274576998,0,62,1521,0,0,14.5
17,4,5,SNR11,a,b,0,None,None,No,74.579637684217,0,75,1534,0,0,13
17,4,6,SNR09,a,b,0,None,None,No,88.5828732778568,0,89,1548,0,0,14
17,4,7,SNR07,a,b,0.775600790060707,b,HIT,No,101.585810372374,102.36175812847,102,1561,103,1562,13
17,4,8,SNR07,a,b,0.850324215105502,b,HIT,No,115.588693012897,116.439310595322,116,1575,117,1576,14
17,4,9,SNR09,a,b,1.00406038634537,b,HIT,No,129.091599031574,130.096549213297,130,1589,131,1590,13.5
17,4,10,SNR11,a,b,0,None,None,No,144.094565491335,0,145,1604,0,0,15
17,4,11,SNR07,a,b,0.850868755034753,b,HIT,No,158.597490041476,159.449397413806,159,1618,160,1619,14.5
17,4,12,SNR07,a,b,0.901942610624246,b,HIT,No,172.100388932667,173.002916852456,173,1632,174,1633,13.5
17,4,13,SNR07,a,b,0.787714665624662,b,HIT,No,185.103346554345,185.89140504991,186,1645,186,1645,13
17,4,14,SNR11,a,b,1.05059602890105,b,HIT,No,200.106265972697,201.157112604019,201,1660,202,1661,15
17,4,15,catch,catch,None,0,None,None,No,214.109715961122,0,215,1674,0,0,14
17,4,16,SNR11,a,b,0,None,None,No,227.112361398903,0,228,1687,0,0,13
17,4,17,SNR09,a,b,0,None,None,No,240.115486659056,0,241,1700,0,0,13
17,4,18,SNR07,a,b,0.84007745582494,b,HIT,No,254.118297169419,254.958528578939,255,1714,255,1714,14
17,4,19,SNR09,a,b,0.944093993864954,b,HIT,No,268.621329487152,269.565538376096,269,1728,270,1729,14.5
17,4,20,SNR07,a,b,0.94087892738753,b,HIT,No,283.124108066376,284.065127262692,284,1743,285,1744,14.5
17,4,21,SNR07,a,b,0.832538286005729,b,HIT,No,298.127105601976,298.95986683575,299,1758,299,1758,15
17,4,22,SNR07,a,b,1.0866539816343,b,HIT,No,313.129981685211,314.216799884136,314,1773,315,1774,15
17,4,23,SNR09,a,b,1.03195223557123,b,HIT,No,326.132869457524,327.164948562357,327,1786,328,1787,13
17,4,24,SNR11,a,b,0,None,None,No,340.135805411644,0,341,1800,0,0,14
17,4,25,SNR07,a,b,0.812537704405258,b,HIT,No,353.638681779978,354.451343502641,354,1813,355,1814,13.5
17,4,26,catch,catch,None,0,None,None,No,366.641677604982,0,367,1826,0,0,13
17,4,27,SNR11,a,b,0,None,None,No,380.644373505366,0,381,1840,0,0,14
17,4,28,SNR09,a,b,0,None,None,No,395.14722449985,0,396,1855,0,0,14.5
17,4,29,SNR11,a,b,0,None,None,No,409.650110846666,0,410,1869,0,0,14.5
17,4,30,catch,catch,None,0,None,None,No,424.653022282232,0,425,1884,0,0,15
17,4,31,SNR09,a,b,1.04927459296596,b,HIT,No,438.655662873323,439.705258488266,439,1898,440,1899,14
17,4,32,SNR11,a,b,0,None,None,No,452.158549220139,0,453,1912,0,0,13.5
17,4,33,SNR09,a,b,0.970123573497403,b,HIT,No,467.161473770281,468.13180176009,468,1927,469,1928,15
17,5,1,SNR09,a,b,1.28378913132474,b,HIT,No,20.0095858987532,21.2933627708017,21,1965,22,1966,15
17,5,2,SNR09,a,b,0.940624048482277,b,HIT,No,33.5122681143636,34.4533092633372,34,1978,35,1979,13.5
17,5,3,catch,catch,None,0,None,None,No,48.5150136220516,0,49,1993,0,0,15
17,5,4,SNR11,a,b,1.16084284520184,b,HIT,No,63.0179133685412,64.1788682578257,64,2008,65,2009,14.5
17,5,5,SNR09,a,b,0,None,None,No,77.0207666438207,0,78,2022,0,0,14
17,5,6,SNR07,a,b,0.938564775162376,b,HIT,No,90.5237182784099,91.4625128437302,91,2035,92,2036,13.5
17,5,7,SNR07,a,b,0.940531391155673,b,HIT,No,105.026544469242,105.967253762457,106,2050,106,2050,14.5
17,5,8,SNR07,a,b,0.780324887935421,b,HIT,No,118.529554264118,119.310186204152,119,2063,120,2064,13.5
17,5,9,SNR07,a,b,0.865487229253631,b,HIT,No,131.532345672818,132.397986285576,132,2076,133,2077,13
17,5,10,SNR09,a,b,0.817347046991927,b,HIT,No,146.035245419307,146.852818550167,147,2091,147,2091,14.5
17,5,11,SNR09,a,b,0,None,None,No,160.038092422399,0,161,2105,0,0,14
17,5,12,SNR09,a,b,0.857635590451537,b,HIT,No,174.540868150628,175.398698749098,175,2119,176,2120,14.5
17,5,13,catch,catch,None,0,None,None,No,187.544314147661,0,188,2132,0,0,13
17,5,14,SNR07,a,b,0.756318944186205,b,HIT,No,200.54680078505,201.303306184263,201,2145,202,2146,13
17,5,15,SNR11,a,b,0,None,None,No,214.549567675196,0,215,2159,0,0,14
17,5,16,SNR09,a,b,0.933194071752951,b,HIT,No,227.55246514089,228.485942886598,228,2172,229,2173,13
17,5,17,SNR11,a,b,0,None,None,No,242.055339513529,0,243,2187,0,0,14.5
17,5,18,SNR11,a,b,0,None,None,No,257.058272901754,0,258,2202,0,0,15
17,5,19,SNR09,a,b,0.90211880208517,b,HIT,No,270.561080846221,271.463369852672,271,2215,272,2216,13.5
17,5,20,catch,catch,None,0,None,None,No,284.563776746605,0,285,2229,0,0,14
17,5,21,SNR09,a,b,1.15617548213049,b,HIT,No,299.566726670597,300.72308262068,300,2244,301,2245,15
17,5,22,SNR11,a,b,2.56795887042244,b,HIT,No,313.069685147573,315.637846723694,314,2258,316,2260,13.5
17,5,23,SNR11,a,b,0,None,None,No,326.572581757969,0,327,2271,0,0,13.5
17,5,24,SNR09,a,b,0.841946567801642,b,HIT,No,339.575456130608,340.417560358404,340,2284,341,2285,13
17,5,25,SNR07,a,b,0.915016416023718,b,HIT,No,354.078282891638,354.993434444803,355,2299,356,2300,14.5
17,5,26,SNR07,a,b,0.96472863665258,b,HIT,No,368.08121257357,369.046141635125,369,2313,370,2314,14
17,5,27,SNR07,a,b,0.746895552118076,b,HIT,No,383.084015671346,383.831063466558,384,2328,384,2328,15
17,5,28,SNR11,a,b,0,None,None,No,398.086951055267,0,399,2343,0,0,15
17,5,29,SNR07,a,b,0.857704299414763,b,HIT,No,413.089860495138,413.94772045885,414,2358,414,2358,15
17,5,30,SNR07,a,b,0.772793700904003,b,HIT,No,427.092712915119,427.865662280317,428,2372,428,2372,14
17,5,31,SNR11,a,b,1.01958861289313,b,HIT,No,441.09549291984,442.115244324525,442,2386,443,2387,14
17,5,32,SNR11,a,b,1.07252017648716,b,HIT,No,454.098327948755,455.17108732368,455,2399,456,2400,13
17,5,33,SNR11,a,b,0,None,None,No,467.101185215427,0,468,2412,0,0,13
17,6,1,SNR07,a,b,0.795068520805216,b,HIT,No,20.0074456571941,20.8029954258644,21,2449,21,2449,15
17,6,2,SNR07,a,b,0.801079557568301,b,HIT,No,35.0102772649156,35.8115797702555,36,2464,36,2464,15
17,6,3,SNR07,a,b,0.773081366249244,b,HIT,No,49.0130455805594,49.7864106207527,50,2478,50,2478,14
17,6,4,SNR11,a,b,0.782034629330155,b,HIT,No,63.0159381995628,63.7981932107558,64,2492,64,2492,14
17,6,5,SNR07,a,b,0.875224230709136,b,HIT,No,76.0188102914058,76.8941990245037,77,2505,77,2505,13
17,6,6,SNR09,a,b,0.876565053418744,b,HIT,No,89.0215632116795,89.8982596959471,90,2518,90,2518,13
17,6,7,SNR11,a,b,1.05911594082136,b,HIT,No,102.024352339583,103.083674122207,103,2531,104,2532,13
17,6,8,SNR09,a,b,0.90231523559487,b,HIT,No,117.027177960216,117.929654277005,118,2546,118,2546,15
17,6,9,SNR07,a,b,0.801197873835918,b,HIT,No,131.030141283883,131.831489405134,132,2560,132,2560,14
17,6,10,SNR09,a,b,0,None,None,No,145.53310916914,0,146,2574,0,0,14.5
17,6,11,catch,catch,None,0,None,None,No,158.535811056613,0,159,2587,0,0,13
17,6,12,SNR07,a,b,0.775989950809162,b,HIT,No,173.038705101113,173.81509704215,174,2602,174,2602,14.5
17,6,13,SNR11,a,b,0,None,None,No,186.041712900294,0,187,2615,0,0,13
17,6,14,SNR11,a,b,1.166619245123,b,HIT,No,201.044679360054,202.211713139777,202,2630,203,2631,15
17,6,15,SNR11,a,b,1.00362418418808,b,HIT,No,216.047673759561,217.051447620959,217,2645,218,2646,15
17,6,16,SNR09,a,b,0.748795169725781,b,HIT,No,230.050541004713,230.799484711257,231,2659,231,2659,14
17,6,17,SNR11,a,b,0,None,None,No,244.553508319772,0,245,2673,0,0,14.5
17,6,18,catch,catch,None,0,None,None,No,258.556177135708,0,259,2687,0,0,14
17,6,19,catch,catch,None,0,None,None,No,273.558969684805,0,274,2702,0,0,15
17,6,20,SNR09,a,b,0.949437612827751,b,HIT,No,287.561916187605,288.51155679124,288,2716,289,2717,14
17,6,21,SNR07,a,b,0.907237762672594,b,HIT,No,301.064858128812,301.972482201241,302,2730,302,2730,13.5
17,6,22,SNR11,a,b,0,None,None,No,314.56771767628,0,315,2743,0,0,13.5
17,6,23,SNR09,a,b,0.903106101468438,b,HIT,No,328.070658762189,328.973988666727,329,2757,329,2757,13.5
17,6,24,SNR09,a,b,1.00104774047213,b,HIT,No,341.07361495837,342.074865974749,342,2770,343,2771,13
17,6,25,SNR09,a,b,1.04200284642866,b,HIT,No,356.076514704859,357.11871484011,357,2785,358,2786,15
17,6,26,SNR09,a,b,0,None,None,No,369.579421008636,0,370,2798,0,0,13.5
17,6,27,SNR09,a,b,0.89808122368413,b,HIT,No,384.082229808402,384.980486083156,385,2813,385,2813,14.5
17,6,28,SNR11,a,b,0,None,None,No,398.585174315505,0,399,2827,0,0,14.5
17,6,29,SNR11,a,b,0,None,None,No,412.088121958702,0,413,2841,0,0,13.5
17,6,30,SNR07,a,b,0.923680873369449,b,HIT,No,426.590939881649,427.514802078261,427,2855,428,2856,14.5
17,6,31,SNR11,a,b,0,None,None,No,440.59369935921,0,441,2869,0,0,14
17,6,32,SNR07,a,b,0.842888536382816,b,HIT,No,453.596453419882,454.439708023953,454,2882,455,2883,13
17,6,33,SNR07,a,b,0,None,None,No,467.099181251404,0,468,2896,0,0,13.5
17,0,0,None,None,None,0,None,None,No,0,0,0,0,0,0,0
17,0,0,None,None,None,0,None,None,No,0,0,0,0,0,0,0
17,0,0,None,None,None,0,None,None,No,0,0,0,0,0,0,0
17,0,0,None,None,None,0,None,None,No,0,0,0,0,0,0,0
17,0,0,None,None,None,0,None,None,No,0,0,0,0,0,0,0
17,0,0,None,None,None,0,None,None,No,0,0,0,0,0,0,0
17,0,0,None,None,None,0,None,None,No,0,0,0,0,0,0,0
17,0,0,None,None,None,0,None,None,No,0,0,0,0,0,0,0
17,0,0,None,None,None,0,None,None,No,0,0,0,0,0,0,0
17,0,0,None,None,None,0,None,None,No,0,0,0,0,0,0,0
17,0,0,None,None,None,0,None,None,No,0,0,0,0,0,0,0
17,0,0,None,None,None,0,None,None,No,0,0,0,0,0,0,0
17,0,0,None,None,None,0,None,None,No,0,0,0,0,0,0,0
17,0,0,None,None,None,0,None,None,No,0,0,0,0,0,0,0
17,0,0,None,None,None,0,None,None,No,0,0,0,0,0,0,0
17,0,0,None,None,None,0,None,None,No,0,0,0,0,0,0,0
17,0,0,None,None,None,0,None,None,No,0,0,0,0,0,0,0
17,0,0,None,None,None,0,None,None,No,0,0,0,0,0,0,0
17,0,0,None,None,None,0,None,None,No,0,0,0,0,0,0,0
17,0,0,None,None,None,0,None,None,No,0,0,0,0,0,0,0
17,0,0,None,None,None,0,None,None,No,0,0,0,0,0,0,0
