subject,block,trial,SNR,stim,correct_resp,RT,response,status,IsDouble,time_stim,time_resp,volume_stim,volume_stim_global,volume_resp,volume_resp_global,ISI
28,1,1,catch,catch,None,0,None,None,No,19.0763430749914,0,20,20,0,0,14
28,1,2,SNR11,a,b,0,None,None,No,32.0836461824614,0,33,33,0,0,13
28,1,3,SNR07,a,b,1.17283555349786,b,HIT,No,46.0873048636825,47.2612933593496,47,47,48,48,14
28,1,4,SNR07,a,b,1.06391102844646,b,HIT,No,59.5925398597539,60.6571183060075,60,60,61,61,13.5
28,1,5,SNR09,a,b,0,None,None,No,73.5997155277704,0,74,74,0,0,14
28,1,6,SNR09,a,b,1.14324023505833,b,HIT,No,86.6039546714685,87.746859629576,87,87,88,88,13
28,1,7,SNR11,a,b,0,None,None,No,101.606986133903,0,102,102,0,0,15
28,1,8,catch,catch,None,0,None,None,No,116.610689575738,0,117,117,0,0,15
28,1,9,SNR07,a,b,1.05608048699287,b,HIT,No,131.113019978629,132.169381288581,132,132,133,133,14.5
28,1,10,SNR11,a,b,0,None,None,No,145.615770047908,0,146,146,0,0,14.5
28,1,11,SNR09,a,b,0,None,None,No,160.118522968182,0,161,161,0,0,14.5
28,1,12,SNR09,a,b,1.16132067187573,b,HIT,No,173.621245667914,174.783681363733,174,174,175,175,13.5
28,1,13,SNR07,a,b,1.08327327238294,b,HIT,No,188.124077560735,189.207620252096,189,189,190,190,14.5
28,1,14,SNR07,a,b,0.965302256736322,b,HIT,No,202.126873816125,203.092332307355,203,203,204,204,14
28,1,15,SNR11,a,b,0,None,None,No,217.129681760592,0,218,218,0,0,15
28,1,16,SNR11,a,b,0,None,None,No,230.132402749727,0,231,231,0,0,13
28,1,17,SNR11,a,b,0,None,None,No,244.135086105735,0,245,245,0,0,14
28,1,18,catch,catch,None,0,None,None,No,257.137665115346,0,258,258,0,0,13
28,1,19,SNR11,a,b,1.44983447125924,b,HIT,No,271.640414899525,273.090434400328,272,272,274,274,14.5
28,1,20,SNR11,a,b,0,None,None,No,285.64316211781,0,286,286,0,0,14
28,1,21,SNR09,a,b,1.1470699759484,b,HIT,No,300.645947539421,301.793155218403,301,301,302,302,15
28,1,22,SNR09,a,b,1.09404404444285,b,HIT,No,314.648737237523,315.742953196934,315,315,316,316,14
28,1,23,SNR07,a,b,1.06607122696732,b,HIT,No,327.651515816747,328.717780626238,328,328,329,329,13
28,1,24,SNR11,a,b,0,None,None,No,341.154273583711,0,342,342,0,0,13.5
28,1,25,SNR07,a,b,1.1090496837096,b,HIT,No,354.157145390455,355.266420872929,355,355,356,356,13
28,1,26,SNR07,a,b,1.10410007218525,b,HIT,No,367.659934518359,368.764250125729,368,368,369,369,13.5
28,1,27,SNR09,a,b,0,None,None,No,382.162794636025,0,383,383,0,0,14.5
28,1,28,SNR11,a,b,0,None,None,No,395.66566074078,0,396,396,0,0,13.5
28,1,29,SNR09,a,b,1.31719252309631,b,HIT,No,409.168330412014,410.486163553571,410,410,411,411,13.5
28,1,30,SNR07,a,b,1.20819957417552,b,HIT,No,424.171200508161,425.379593379763,425,425,426,426,15
28,1,31,SNR09,a,b,1.16932626438938,b,HIT,No,439.17401814601,440.343498364099,440,440,441,441,15
28,1,32,SNR07,a,b,1.04421749894755,b,HIT,No,454.176843766643,455.221249146127,455,455,456,456,15
28,1,33,SNR09,a,b,1.3053523430026,b,HIT,No,467.179609516392,468.485121800186,468,468,469,469,13
28,2,1,SNR07,a,b,1.08388481070142,b,HIT,No,19.5084095784291,20.5931445556839,20,506,21,507,14.5
28,2,2,SNR07,a,b,1.23306252686962,b,HIT,No,32.5109224449673,33.7442170427889,33,519,34,520,13
28,2,3,SNR07,a,b,0.944906527296553,b,HIT,No,45.5137685927605,46.459160644416,46,532,47,533,13
28,2,4,SNR11,a,b,0,None,None,No,58.5165411848961,0,59,545,0,0,13
28,2,5,SNR11,a,b,0,None,None,No,71.5193246108107,0,72,558,0,0,13
28,2,6,SNR09,a,b,1.11814064982173,b,HIT,No,84.5221411082614,85.640419176017,85,571,86,572,13
28,2,7,SNR11,a,b,0,None,None,No,99.0249288106677,0,100,586,0,0,14.5
28,2,8,SNR11,a,b,0,None,None,No,114.02774958461,0,115,601,0,0,15
28,2,9,SNR09,a,b,1.11815262399614,b,HIT,No,128.530492241304,129.648836167032,129,615,130,616,14.5
28,2,10,SNR07,a,b,1.27023008665856,b,HIT,No,142.533263693041,143.803707034088,143,629,144,630,14
28,2,11,SNR11,a,b,0,None,None,No,156.536014902718,0,157,643,0,0,14
28,2,12,SNR07,a,b,1.11432573410275,b,HIT,No,171.538813153804,172.653366682366,172,658,173,659,15
28,2,13,SNR07,a,b,1.06125675257863,b,HIT,No,186.041644761526,187.103149550626,187,673,188,674,14.5
28,2,14,SNR09,a,b,1.14003828315253,b,HIT,No,199.54471756338,200.684974517811,200,686,201,687,13.5
28,2,15,SNR09,a,b,1.53668830761671,b,HIT,No,213.047954297418,214.584857855117,214,700,215,701,13.5
28,2,16,SNR11,a,b,0,None,None,No,226.550792462427,0,227,713,0,0,13.5
28,2,17,SNR11,a,b,13.3735678029188,b,FA,No,241.553599836695,254.927548817579,242,728,255,741,15
28,2,18,SNR11,a,b,0,None,None,No,255.556351046372,0,256,742,0,0,14
28,2,19,SNR09,a,b,1.18482968728858,b,HIT,No,269.559147016662,270.744173137474,270,756,271,757,14
28,2,20,SNR09,a,b,1.16744033153736,b,HIT,No,284.561927306483,285.729559509948,285,771,286,772,15
28,2,21,SNR09,a,b,1.14092209144292,b,HIT,No,299.564722421475,300.705818993781,300,786,301,787,15
28,2,22,SNR07,a,b,1.11597645990696,b,HIT,No,313.067458235782,314.183618869934,314,800,315,801,13.5
28,2,23,catch,catch,None,0,None,None,No,326.070423555144,0,327,813,0,0,13
28,2,24,SNR09,a,b,0,None,None,No,340.073146825076,0,341,827,0,0,14
28,2,25,SNR11,a,b,1.23697009990792,b,HIT,No,354.576093042775,355.81325729541,355,841,356,842,14.5
28,2,26,SNR09,a,b,1.22218398721816,b,HIT,No,369.078841116358,370.301197018544,370,856,371,857,14.5
28,2,27,SNR07,a,b,1.03697369216388,b,HIT,No,384.08159517703,385.118751617939,385,871,386,872,15
28,2,28,SNR09,a,b,1.25609514110693,b,HIT,No,397.084317876762,398.340602038803,398,884,399,885,13
28,2,29,SNR07,a,b,1.13123013569566,b,HIT,No,410.58702204503,411.718447758947,411,897,412,898,13.5
28,2,30,catch,catch,None,0,None,None,No,424.589637832469,0,425,911,0,0,14
28,2,31,SNR07,a,b,0.903502389704954,b,HIT,No,438.592400446124,439.496105826634,439,925,440,926,14
28,2,32,catch,catch,None,0,None,None,No,453.595070687557,0,454,940,0,0,15
28,2,33,SNR11,a,b,1.35581351987275,b,HIT,No,467.097825033328,468.453854088383,468,954,469,955,13.5
28,3,1,catch,catch,None,0,None,None,No,20.0560348710837,0,21,994,0,0,15
28,3,2,SNR11,a,b,0,None,None,No,34.0624447619819,0,35,1008,0,0,14
28,3,3,SNR11,a,b,1.9410377277818,b,HIT,No,48.0658003824894,50.0074325426195,49,1022,51,1024,14
28,3,4,SNR11,a,b,0,None,None,No,63.0708369493447,0,64,1037,0,0,15
28,3,5,SNR07,a,b,1.09647537253841,b,HIT,No,76.077941912698,77.175524611495,77,1050,78,1051,13
28,3,6,SNR07,a,b,1.47991217796516,b,HIT,No,89.5819906099646,91.0616410666369,90,1063,92,1065,13.5
28,3,7,SNR09,a,b,0,None,None,No,102.584863842205,0,103,1076,0,0,13
28,3,8,SNR07,a,b,1.12833095940732,b,HIT,No,117.087565444578,118.216627684069,118,1091,119,1092,14.5
28,3,9,SNR09,a,b,0,None,None,No,130.09024680489,0,131,1104,0,0,13
28,3,10,SNR07,a,b,1.27970251583247,b,HIT,No,144.092968649324,145.373541003573,145,1118,146,1119,14
28,3,11,SNR07,a,b,1.15372847356775,b,HIT,No,157.595681940775,158.74967413133,158,1131,159,1132,13.5
28,3,12,SNR09,a,b,1.18181419042594,b,HIT,No,172.598430299457,173.780462590961,173,1146,174,1147,15
28,3,13,SNR07,a,b,1.31984879465745,b,HIT,No,187.601262477377,188.92130456946,188,1161,189,1162,15
28,3,14,SNR09,a,b,1.55487508652732,b,HIT,No,201.604131718226,203.159157052163,202,1175,204,1177,14
28,3,15,SNR11,a,b,0,None,None,No,215.106919705732,0,216,1189,0,0,13.5
28,3,16,catch,catch,None,0,None,None,No,229.110635977042,0,230,1203,0,0,14
28,3,17,SNR09,a,b,1.56943283455985,b,HIT,No,242.612877428905,244.182537772826,243,1216,245,1218,13.5
28,3,18,SNR11,a,b,0,None,None,No,257.115727282991,0,258,1231,0,0,14.5
28,3,19,SNR07,a,b,1.16948192868585,b,HIT,No,270.118581128469,271.288538603036,271,1244,272,1245,13
28,3,20,SNR09,a,b,0,None,None,No,284.621386792141,0,285,1258,0,0,14.5
28,3,21,SNR11,a,b,0,None,None,No,298.124201293895,0,299,1272,0,0,13.5
28,3,22,catch,catch,None,0,None,None,No,311.126848157174,0,312,1285,0,0,13
28,3,23,SNR09,a,b,0,None,None,No,325.629684896686,0,326,1299,0,0,14.5
28,3,24,SNR09,a,b,0,None,None,No,339.132443233849,0,340,1313,0,0,13.5
28,3,25,SNR11,a,b,1.30685909358726,b,HIT,No,352.135311619399,353.442382256779,353,1326,354,1327,13
28,3,26,SNR11,a,b,8.29566722964591,b,FA,No,365.138161188386,373.434014587969,366,1339,374,1347,13
28,3,27,SNR11,a,b,1.36581765951632,b,HIT,No,379.640952026886,381.006913376524,380,1353,382,1355,14.5
28,3,28,SNR07,a,b,1.33588963001966,b,HIT,No,394.143675296817,395.479761075258,395,1368,396,1369,14.5
28,3,29,SNR09,a,b,1.45599604053859,b,HIT,No,408.146413962118,409.602626678238,409,1382,410,1383,14
28,3,30,SNR07,a,b,1.28591226691424,b,HIT,No,422.149263816204,423.435386771614,423,1396,424,1397,14
28,3,31,SNR09,a,b,1.2659573012279,b,HIT,No,437.152097704721,438.418260847749,438,1411,439,1412,15
28,3,32,SNR07,a,b,1.14719541970408,b,HIT,No,452.154840361415,453.302169207663,453,1426,454,1427,15
28,3,33,SNR11,a,b,1.41197868140443,b,HIT,No,467.157653722772,468.569851360552,468,1441,469,1442,15
28,4,1,SNR11,a,b,0,None,None,No,18.5077116549795,0,19,1477,0,0,13.5
28,4,2,SNR09,a,b,1.05141740041654,b,HIT,No,33.5105144676566,34.5621442671633,34,1492,35,1493,15
28,4,3,SNR09,a,b,1.2381988785346,b,HIT,No,47.0148628044434,48.2530400154182,48,1506,49,1507,13.5
28,4,4,SNR11,a,b,0,None,None,No,61.5173742454843,0,62,1520,0,0,14.5
28,4,5,SNR11,a,b,0,None,None,No,74.5201533949072,0,75,1533,0,0,13
28,4,6,SNR09,a,b,1.1922613746101,b,HIT,No,88.5230135125735,89.7154995455515,89,1547,90,1548,14
28,4,7,SNR07,a,b,0.991393702948699,b,HIT,No,101.525846830892,102.517613158822,102,1560,103,1561,13
28,4,8,SNR07,a,b,1.02621147308309,b,HIT,No,115.528765393945,116.555245430711,116,1574,117,1575,14
28,4,9,SNR09,a,b,1.48325610939355,b,HIT,No,129.031570487417,130.515003073372,130,1588,131,1589,13.5
28,4,10,SNR11,a,b,0,None,None,No,144.034310863315,0,145,1603,0,0,15
28,4,11,SNR07,a,b,1.11236196910249,b,HIT,No,158.537017312379,159.64961249283,159,1617,160,1618,14.5
28,4,12,SNR07,a,b,1.17744846257119,b,HIT,No,172.039880851239,173.217499803281,173,1631,174,1632,13.5
28,4,13,SNR07,a,b,1.07948772190866,b,HIT,No,185.042758074872,186.122404312072,186,1644,187,1645,13
28,4,14,SNR11,a,b,0,None,None,No,200.045615056444,0,201,1659,0,0,15
28,4,15,catch,catch,None,0,None,None,No,214.048220580303,0,215,1673,0,0,14
28,4,16,SNR11,a,b,0,None,None,No,227.050986044952,0,228,1686,0,0,13
28,4,17,SNR09,a,b,1.51275962581349,b,HIT,No,240.053825350359,241.566750618951,241,1699,242,1700,13
28,4,18,SNR07,a,b,1.21871204613853,b,HIT,No,254.056537216312,255.275479337703,255,1713,256,1714,14
28,4,19,SNR09,a,b,1.20391338906848,b,HIT,No,268.559264192536,269.763352062466,269,1727,270,1728,14.5
28,4,20,SNR07,a,b,1.1150287893397,b,HIT,No,283.06205275024,284.177238629379,284,1742,285,1743,14.5
28,4,21,SNR07,a,b,1.15888392689158,b,HIT,No,298.064819355288,299.223943906113,299,1757,300,1758,15
28,4,22,SNR07,a,b,1.49492694041328,b,HIT,No,313.067602496103,314.562763788265,314,1772,315,1773,15
28,4,23,SNR09,a,b,1.30500537697662,b,HIT,No,326.070376228636,327.375598281192,327,1785,328,1786,13
28,4,24,SNR11,a,b,1.25101552423803,b,HIT,No,340.073243473789,341.32444203187,341,1799,342,1800,14
28,4,25,SNR07,a,b,1.1520030517022,b,HIT,No,353.576027469902,354.728264303154,354,1812,355,1813,13.5
28,4,26,catch,catch,None,0,None,None,No,366.578645823236,0,367,1825,0,0,13
28,4,27,SNR11,a,b,1.25750239198533,b,HIT,No,380.581380782244,381.839048531909,381,1839,382,1840,14
28,4,28,SNR09,a,b,1.59556134371087,b,HIT,No,395.084114600855,396.67984272774,396,1854,397,1855,14.5
28,4,29,SNR11,a,b,0,None,None,No,409.586878354908,0,410,1868,0,0,14.5
28,4,30,catch,catch,None,0,None,None,No,424.589469908894,0,425,1883,0,0,15
28,4,31,SNR09,a,b,1.47185982914743,b,HIT,No,438.592256470902,440.06430104449,439,1897,441,1899,14
28,4,32,SNR11,a,b,1.22289217424623,b,HIT,No,452.094983732226,453.318101135038,453,1911,454,1912,13.5
28,4,33,SNR09,a,b,1.28896910320327,b,HIT,No,467.097707857455,468.386901048824,468,1926,469,1927,15
28,5,1,SNR09,a,b,1.18023302888469,b,HIT,No,20.0591860752868,21.2403898677937,21,1965,22,1966,15
28,5,2,SNR09,a,b,1.11016185666085,b,HIT,No,33.5661137067832,34.6764714267631,34,1978,35,1979,13.5
28,5,3,catch,catch,None,12.9115133991036,b,FA,No,48.5692862934449,61.4813416666001,49,1993,62,2006,15
28,5,4,SNR11,a,b,1.30714504833668,b,HIT,No,63.0726764109857,64.3804292913454,64,2008,65,2009,14.5
28,5,5,SNR09,a,b,1.1182085034925,b,HIT,No,77.0798674743724,78.1987140304281,78,2022,79,2023,14
28,5,6,SNR07,a,b,1.10012008389094,b,HIT,No,90.5839429709871,91.6839279177363,91,2035,92,2036,13.5
28,5,7,SNR07,a,b,0.869276771121804,b,HIT,No,105.086844713173,105.956311930728,106,2050,106,2050,14.5
28,5,8,SNR07,a,b,0.918320718632458,b,HIT,No,118.589634126176,119.50814529124,119,2063,120,2064,13.5
28,5,9,SNR07,a,b,0.94950119000714,b,HIT,No,131.592394459035,132.542069559704,132,2076,133,2077,13
28,5,10,SNR09,a,b,1.38810274299976,b,HIT,No,146.095126567049,147.483444560131,147,2091,148,2092,14.5
28,5,11,SNR09,a,b,0,None,None,No,160.097892031699,0,161,2105,0,0,14
28,5,12,SNR09,a,b,0.965837388397631,b,HIT,No,174.600606463547,175.566604933133,175,2119,176,2120,14.5
28,5,13,catch,catch,None,0,None,None,No,187.604333283536,0,188,2132,0,0,13
28,5,14,SNR07,a,b,0.935314926555293,b,HIT,No,200.606625198002,201.542263142229,201,2145,202,2146,13
28,5,15,SNR11,a,b,1.08141927067118,b,HIT,No,214.60942202359,215.691040578775,215,2159,216,2160,14
28,5,16,SNR09,a,b,0,None,None,No,227.612196611422,0,228,2172,0,0,13
28,5,17,SNR11,a,b,1.33353014698514,b,HIT,No,242.114985454226,243.448662712527,243,2187,244,2188,14.5
28,5,18,SNR11,a,b,0,None,None,No,257.117652844665,0,258,2202,0,0,15
28,5,19,SNR09,a,b,0.087681480054016,b,HIT,No,270.620475329204,270.708364361657,271,2215,271,2215,13.5
28,5,20,catch,catch,None,13.2947916892372,b,FA,No,284.623012429196,297.91801224103,285,2229,298,2242,14
28,5,21,SNR09,a,b,1.25091402883118,b,HIT,No,299.625819233265,300.876961056556,300,2244,301,2245,15
28,5,22,SNR11,a,b,0,None,None,No,313.128636871113,0,314,2258,0,0,13.5
28,5,23,SNR11,a,b,1.00829553864969,b,HIT,No,326.63137297052,327.639813624789,327,2271,328,2272,13.5
28,5,24,SNR09,a,b,1.01631823712887,b,HIT,No,339.634107644429,340.650567575982,340,2284,341,2285,13
28,5,24,SNR09,a,b,10.3290851614875,b,FA,No,0,349.965709663845,0,0,350,2294,13
28,5,25,SNR07,a,b,1.17330568248872,b,HIT,No,354.136895346835,355.310355553224,355,2299,356,2300,14.5
28,5,26,SNR07,a,b,1.22930577143779,b,HIT,No,368.139666513473,369.369144484979,369,2313,370,2314,14
28,5,27,SNR07,a,b,1.13932211334031,b,HIT,No,383.142400046984,384.281982171021,384,2328,385,2329,15
28,5,28,SNR11,a,b,1.12751785578075,b,HIT,No,398.145199438468,399.272870107551,399,2343,400,2344,15
28,5,29,SNR07,a,b,0.871598050831381,b,HIT,No,413.147891632559,414.019675853331,414,2358,415,2359,15
28,5,30,SNR07,a,b,0.87858127672007,b,HIT,No,427.150671637281,428.029452198516,428,2372,429,2373,14
28,5,31,SNR11,a,b,1.31864653028242,b,HIT,No,441.153415434372,442.472434019435,442,2386,443,2387,14
28,5,32,SNR11,a,b,1.12283025064971,b,HIT,No,454.156100215877,455.27911920236,455,2399,456,2400,13
28,5,33,SNR11,a,b,0,None,None,No,467.158844298068,0,468,2412,0,0,13
28,6,1,SNR07,a,b,1.10001089079742,b,HIT,No,20.0091670876635,21.1091679999818,21,2451,22,2452,15
28,6,2,SNR07,a,b,1.19202217617567,b,HIT,No,35.0116816647983,36.203926503643,36,2466,37,2467,15
28,6,3,SNR07,a,b,1.37308626995218,b,HIT,No,49.0145135576192,50.3877765892299,50,2480,51,2481,14
28,6,4,SNR11,a,b,0,None,None,No,63.0173269189759,0,64,2494,0,0,14
28,6,5,SNR07,a,b,1.26106556488958,b,HIT,No,76.0201471227194,77.2819747584352,77,2507,78,2508,13
28,6,6,SNR09,a,b,1.13312063014018,b,HIT,No,89.0229773049435,90.1562698500491,90,2520,91,2521,13
28,6,7,SNR11,a,b,1.30222651265285,b,HIT,No,102.025691451692,103.328126657141,103,2533,104,2534,13
28,6,8,SNR09,a,b,1.14533257991206,b,HIT,No,117.02844722296,118.174099114253,118,2548,119,2549,15
28,6,9,SNR07,a,b,1.12433500553743,b,HIT,No,131.031271703196,132.155820818418,132,2562,133,2563,14
28,6,10,SNR09,a,b,1.24239924870562,b,HIT,No,145.534053988712,146.776639407358,146,2576,147,2577,14.5
28,6,11,catch,catch,None,0,None,None,No,158.536594224797,0,159,2589,0,0,13
28,6,12,SNR07,a,b,1.04765864929141,b,HIT,No,173.039426687817,174.087286047119,174,2604,175,2605,14.5
28,6,13,SNR11,a,b,0,None,None,No,186.042256584942,0,187,2617,0,0,13
28,6,14,SNR11,a,b,0,None,None,No,201.045044287348,0,202,2632,0,0,15
28,6,15,SNR11,a,b,1.21791063158526,b,HIT,No,216.047783522848,217.265858941916,217,2647,218,2648,15
28,6,16,SNR09,a,b,0,None,None,No,230.050603726592,0,231,2661,0,0,14
28,6,17,SNR11,a,b,1.07688675964164,b,HIT,No,244.553337260103,245.630465784075,245,2675,246,2676,14.5
28,6,18,catch,catch,None,0,None,None,No,258.555956468735,0,259,2689,0,0,14
28,6,19,catch,catch,None,0,None,None,No,273.558607038307,0,274,2704,0,0,15
28,6,20,SNR09,a,b,1.26945746715501,b,HIT,No,287.561366230769,288.830984494011,288,2718,289,2719,14
28,6,21,SNR07,a,b,1.1295132668165,b,HIT,No,301.064193561998,302.193888437165,302,2732,303,2733,13.5
28,6,22,SNR11,a,b,0,None,None,No,314.567001221366,0,315,2745,0,0,13.5
28,6,23,SNR09,a,b,1.12334628065219,b,HIT,No,328.069843662867,329.193421159169,329,2759,330,2760,13.5
28,6,24,SNR09,a,b,0,None,None,No,341.072707486826,0,342,2772,0,0,13
28,6,25,SNR09,a,b,1.41133464175073,b,HIT,No,356.075534818055,357.487082143993,357,2787,358,2788,15
28,6,26,SNR09,a,b,1.18543238752318,b,HIT,No,369.578485597346,370.764116128988,370,2800,371,2801,13.5
28,6,27,SNR09,a,b,1.21036461938638,b,HIT,No,384.081209722575,385.291790732443,385,2815,386,2816,14.5
28,6,28,SNR11,a,b,0,None,None,No,398.583947247479,0,399,2829,0,0,14.5
28,6,29,SNR11,a,b,0,None,None,No,412.086641152167,0,413,2843,0,0,13.5
28,6,30,SNR07,a,b,1.07668519432991,b,HIT,No,426.589369838987,427.666323026798,427,2857,428,2858,14.5
28,6,31,SNR11,a,b,0,None,None,No,440.592111925482,0,441,2871,0,0,14
28,6,32,SNR07,a,b,1.16983830299796,b,HIT,No,453.594901053385,454.764989958797,454,2884,455,2885,13
28,6,33,SNR07,a,b,0,None,None,No,467.097678207112,0,468,2898,0,0,13.5
28,0,0,None,None,None,0,None,None,No,0,0,0,0,0,0,0
28,0,0,None,None,None,0,None,None,No,0,0,0,0,0,0,0
28,0,0,None,None,None,0,None,None,No,0,0,0,0,0,0,0
28,0,0,None,None,None,0,None,None,No,0,0,0,0,0,0,0
28,0,0,None,None,None,0,None,None,No,0,0,0,0,0,0,0
28,0,0,None,None,None,0,None,None,No,0,0,0,0,0,0,0
28,0,0,None,None,None,0,None,None,No,0,0,0,0,0,0,0
28,0,0,None,None,None,0,None,None,No,0,0,0,0,0,0,0
28,0,0,None,None,None,0,None,None,No,0,0,0,0,0,0,0
28,0,0,None,None,None,0,None,None,No,0,0,0,0,0,0,0
28,0,0,None,None,None,0,None,None,No,0,0,0,0,0,0,0
28,0,0,None,None,None,0,None,None,No,0,0,0,0,0,0,0
28,0,0,None,None,None,0,None,None,No,0,0,0,0,0,0,0
28,0,0,None,None,None,0,None,None,No,0,0,0,0,0,0,0
28,0,0,None,None,None,0,None,None,No,0,0,0,0,0,0,0
28,0,0,None,None,None,0,None,None,No,0,0,0,0,0,0,0
28,0,0,None,None,None,0,None,None,No,0,0,0,0,0,0,0
28,0,0,None,None,None,0,None,None,No,0,0,0,0,0,0,0
28,0,0,None,None,None,0,None,None,No,0,0,0,0,0,0,0
28,0,0,None,None,None,0,None,None,No,0,0,0,0,0,0,0
28,0,0,None,None,None,0,None,None,No,0,0,0,0,0,0,0
