subject,block,trial,SNR,stim,correct_resp,RT,response,status,IsDouble,time_stim,time_resp,volume_stim,volume_stim_global,volume_resp,volume_resp_global,ISI
4,1,1,SNR09,a,b,1.03460517473923,b,HIT,No,17.0881161977101,18.1236981256659,18,18,19,19,13
4,1,2,SNR09,a,b,1.09635188660741,b,HIT,No,30.595297158492,31.6918283731129,31,31,32,32,13.5
4,1,3,SNR11,a,b,0,None,None,No,45.0987179330009,0,46,46,0,0,14.5
4,1,4,SNR07,a,b,1.01123380239005,b,HIT,No,59.1020427712992,60.1134624590062,60,60,61,61,14
4,1,5,SNR11,a,b,1.0892087016,b,HIT,No,72.6102563649328,73.6996988486799,73,73,74,74,13.5
4,1,6,SNR11,a,b,1.11258378025195,b,HIT,No,87.6132211217038,88.7269669702889,88,88,89,89,15
4,1,7,SNR07,a,b,1.05674662491219,b,HIT,No,101.115994718804,102.172961441056,102,102,103,103,13.5
4,1,8,SNR07,a,b,1.10190791891455,b,HIT,No,114.618724410477,115.720798827896,115,115,116,116,13.5
4,1,9,SNR11,a,b,1.18104574175777,b,HIT,No,129.12145524255,130.302703975636,130,130,131,131,14.5
4,1,10,SNR11,a,b,1.45969866621544,b,HIT,No,144.124123495134,145.583961575338,145,145,146,146,15
4,1,11,SNR07,a,b,1.03525463294864,b,HIT,No,157.12687414167,158.162324353343,158,158,159,159,13
4,1,12,SNR09,a,b,1.15322709170141,b,HIT,No,170.62975807254,171.783230920597,171,171,172,172,13.5
4,1,13,SNR11,a,b,1.57520785941415,b,HIT,No,183.632697740496,185.208104599835,184,184,186,186,13
4,1,14,SNR09,a,b,0,None,None,No,198.135606475081,0,199,199,0,0,14.5
4,1,15,SNR07,a,b,0.956523362961889,b,HIT,No,212.138512501215,213.095173567564,213,213,214,214,14
4,1,16,SNR11,a,b,0,None,None,No,226.141303061776,0,227,227,0,0,14
4,1,17,SNR07,a,b,0.939358906629423,b,HIT,No,239.144042589405,240.083605627764,240,240,241,241,13
4,1,18,catch,catch,None,0,None,None,No,252.147336921984,0,253,253,0,0,13
4,1,19,catch,catch,None,0,None,None,No,267.149981226153,0,268,268,0,0,15
4,1,20,SNR07,a,b,1.01847477675983,b,HIT,No,281.65259003535,282.671215345004,282,282,283,283,14.5
4,1,21,catch,catch,None,0,None,None,No,295.655431913943,0,296,296,0,0,14
4,1,22,SNR09,a,b,1.1056344633671,b,HIT,No,309.658146922957,310.76393591062,310,310,311,311,14
4,1,23,SNR11,a,b,0,None,None,No,322.660853664065,0,323,323,0,0,13
4,1,24,SNR07,a,b,0.983886422931391,b,HIT,No,337.163579079235,338.14766279149,338,338,339,339,14.5
4,1,25,SNR11,a,b,0,None,None,No,350.66632901302,0,351,351,0,0,13.5
4,1,26,SNR09,a,b,0,None,None,No,363.669156351505,0,364,364,0,0,13
4,1,27,SNR09,a,b,0,None,None,No,377.671986540991,0,378,378,0,0,14
4,1,28,SNR07,a,b,1.08716367800844,b,HIT,No,392.674706681807,393.762135502984,393,393,394,394,15
4,1,29,SNR07,a,b,1.06241413138923,b,HIT,No,407.677473579054,408.740039953939,408,408,409,409,15
4,1,30,SNR09,a,b,1.43035301959571,b,HIT,No,422.680270696919,424.110860349664,423,423,425,425,15
4,1,31,SNR11,a,b,1.13854728343722,b,HIT,No,436.683000531142,437.821749380406,437,437,438,438,14
4,1,31,SNR11,a,b,13.2503621485048,b,FA,No,0,449.935725589936,0,0,450,450,14
4,1,32,SNR09,a,b,0,None,None,No,451.185759303033,0,452,452,0,0,14.5
4,1,33,SNR09,a,b,1.05282108053507,b,HIT,No,466.188564973903,467.241604441177,467,467,468,468,15
4,2,1,SNR11,a,b,1.13262432719785,b,HIT,No,17.5085103829209,18.6412196699737,18,501,19,502,13.5
4,2,2,SNR09,a,b,0.974746396263072,b,HIT,No,32.5110144178012,33.4862084213461,33,516,34,517,15
4,2,3,catch,catch,None,0,None,None,No,45.514107184553,0,46,529,0,0,13
4,2,4,SNR09,a,b,1.06077794145676,b,HIT,No,58.5166998855893,59.5776987796857,59,542,60,543,13
4,2,5,catch,catch,None,0,None,None,No,72.5200481021024,0,73,556,0,0,14
4,2,6,SNR09,a,b,1.04891748887167,b,HIT,No,86.0223202079863,87.0714344159823,87,570,88,571,13.5
4,2,7,SNR07,a,b,1.02902006221484,b,HIT,No,100.025070569422,101.054295333566,101,584,102,585,14
4,2,8,SNR09,a,b,0.888302596207723,b,HIT,No,113.027889925101,113.916387244732,114,597,114,597,13
4,2,9,SNR07,a,b,1.05636801187393,b,HIT,No,127.530645845991,128.587170092763,128,611,129,612,14.5
4,2,10,SNR11,a,b,1.2023632524124,b,HIT,No,142.033527781159,143.23608005499,143,626,144,627,14.5
4,2,11,SNR09,a,b,1.22224613895924,b,HIT,No,156.036351413341,157.258811092336,157,640,158,641,14
4,2,12,SNR11,a,b,0,None,None,No,169.039158509713,0,170,653,0,0,13
4,2,13,SNR11,a,b,0,None,None,No,183.041954487177,0,184,667,0,0,14
4,2,14,SNR11,a,b,0,None,None,No,197.044878189523,0,198,681,0,0,14
4,2,15,SNR11,a,b,0,None,None,No,210.54764693992,0,211,694,0,0,13.5
4,2,16,SNR11,a,b,1.44961410265205,b,HIT,No,225.550415547767,227.000865849246,226,709,228,711,15
4,2,17,SNR07,a,b,0.989650863468341,b,HIT,No,238.553163628402,239.543021189501,239,722,240,723,13
4,2,18,SNR09,a,b,0,None,None,No,253.555881773517,0,254,737,0,0,15
4,2,19,SNR07,a,b,1.00797767323456,b,HIT,No,267.058613175791,268.066741381921,268,751,269,752,13.5
4,2,20,SNR09,a,b,0,None,None,No,280.561334314458,0,281,764,0,0,13.5
4,2,21,SNR07,a,b,1.0661862918696,b,HIT,No,295.564149963835,296.630505320112,296,779,297,780,15
4,2,22,SNR09,a,b,0,None,None,No,310.066932113941,0,311,794,0,0,14.5
4,2,23,SNR07,a,b,0.972337299741412,b,HIT,No,324.569695447435,325.542173871766,325,808,326,809,14.5
4,2,24,SNR07,a,b,1.05581520262422,b,HIT,No,339.572482871894,340.628431786503,340,823,341,824,15
4,2,25,catch,catch,None,0,None,None,No,354.575152264879,0,355,838,0,0,15
4,2,26,SNR11,a,b,0,None,None,No,369.078147955019,0,370,853,0,0,14.5
4,2,27,SNR09,a,b,0,None,None,No,383.581069519113,0,384,867,0,0,14.5
4,2,28,SNR11,a,b,0,None,None,No,398.58394846073,0,399,882,0,0,15
4,2,29,SNR09,a,b,0.99532378684853,b,HIT,No,412.586844793458,413.58244341688,413,896,414,897,14
4,2,30,SNR07,a,b,0.969531058672146,b,HIT,No,425.58962052881,426.559322362488,426,909,427,910,13
4,2,31,SNR11,a,b,0,None,None,No,438.592326129517,0,439,922,0,0,13
4,2,32,SNR07,a,b,1.16252164266734,b,HIT,No,452.095206068985,453.258049874855,453,936,454,937,13.5
4,2,33,SNR07,a,b,0.931552578604169,b,HIT,No,466.09811380572,467.029860252445,467,950,468,951,14
4,3,1,SNR09,a,b,1.43772057844581,b,HIT,No,17.5075935007423,18.9453785118284,18,988,19,989,13.5
4,3,2,SNR11,a,b,1.17183529534486,b,HIT,No,31.5101100800305,32.6821780171225,32,1002,33,1003,14
4,3,3,SNR07,a,b,1.0137845936988,b,HIT,No,44.5128832494806,45.5270304906089,45,1015,46,1016,13
4,3,4,SNR09,a,b,1.38992011207847,b,HIT,No,57.5156940521545,58.9057934922463,58,1028,59,1029,13
4,3,5,SNR07,a,b,0.976993555879744,b,HIT,No,71.518485182916,72.4956640539136,72,1042,73,1043,14
4,3,6,SNR11,a,b,0,None,None,No,85.0212582098161,0,86,1056,0,0,13.5
4,3,7,SNR11,a,b,0,None,None,No,99.0239789208331,0,100,1070,0,0,14
4,3,8,SNR07,a,b,0.957183654980327,b,HIT,No,113.526815525073,114.484232677099,114,1084,115,1085,14.5
4,3,9,SNR07,a,b,0.947149839246777,b,HIT,No,128.529696177291,129.477521989064,129,1099,130,1100,15
4,3,10,SNR09,a,b,1.22934684404208,b,HIT,No,141.532468206341,142.762087891254,142,1112,143,1113,13
4,3,11,SNR07,a,b,0.998237795787645,b,HIT,No,155.035393476737,156.033841676457,156,1126,157,1127,13.5
4,3,12,catch,catch,None,0,None,None,No,169.038362795111,0,170,1140,0,0,14
4,3,13,SNR09,a,b,0.952269953377254,b,HIT,No,183.541127554106,184.493784673528,184,1154,185,1155,14.5
4,3,14,SNR11,a,b,1.05454736212414,b,HIT,No,198.044128090949,199.098816577663,199,1169,200,1170,14.5
4,3,15,SNR11,a,b,0,None,None,No,213.04715528466,0,214,1184,0,0,15
4,3,16,SNR07,a,b,1.04261620469515,b,HIT,No,226.050321607258,227.09336061552,227,1197,228,1198,13
4,3,17,SNR09,a,b,1.19055012645549,b,HIT,No,240.053245309603,241.244391010335,241,1211,242,1212,14
4,3,18,SNR09,a,b,0.963548516494484,b,HIT,No,253.556152903788,254.519906977513,254,1224,255,1225,13.5
4,3,19,SNR11,a,b,0,None,None,No,268.059021724349,0,269,1239,0,0,14.5
4,3,20,SNR07,a,b,1.14265757273097,b,HIT,No,281.561809861558,282.704609129079,282,1252,283,1253,13.5
4,3,21,SNR11,a,b,0,None,None,No,294.564674548166,0,295,1265,0,0,13
4,3,22,SNR09,a,b,1.06177351128463,b,HIT,No,309.067440732662,310.129474825512,310,1280,311,1281,14.5
4,3,23,SNR09,a,b,1.34485005013448,b,HIT,No,324.070196796101,325.415262381972,325,1295,326,1296,15
4,3,24,SNR11,a,b,0,None,None,No,339.072892133202,0,340,1310,0,0,15
4,3,25,catch,catch,None,0,None,None,No,354.075422397299,0,355,1325,0,0,15
4,3,26,SNR09,a,b,0,None,None,No,369.078442748605,0,370,1340,0,0,15
4,3,27,SNR09,a,b,1.18927287765109,b,HIT,No,383.08116060862,384.270671259821,384,1354,385,1355,14
4,3,28,SNR11,a,b,1.27418169833618,b,HIT,No,396.584229284407,397.858572634545,397,1367,398,1368,13.5
4,3,29,SNR07,a,b,1.01018948043202,b,HIT,No,410.58718121167,411.597569121826,411,1381,412,1382,14
4,3,30,SNR07,a,b,0.954135648955344,b,HIT,No,425.590099212012,426.544381687559,426,1396,427,1397,15
4,3,31,catch,catch,None,0,None,None,No,438.592667394432,0,439,1409,0,0,13
4,3,32,SNR07,a,b,1.05872550526328,b,HIT,No,453.09559494563,454.154463286082,454,1424,455,1425,14.5
4,3,33,SNR11,a,b,1.11030212351216,b,HIT,No,466.098508099268,467.208960185475,467,1437,468,1438,13
4,4,1,SNR11,a,b,1.14326255531341,b,HIT,No,18.0094302586514,19.1527164772794,19,1474,20,1475,14
4,4,2,SNR11,a,b,0,None,None,No,31.5119404231856,0,32,1487,0,0,13.5
4,4,3,SNR11,a,b,1.20048672302801,b,HIT,No,45.0147356878997,46.2154616099778,46,1501,47,1502,13.5
4,4,4,SNR09,a,b,0,None,None,No,58.0176194762197,0,59,1514,0,0,13
4,4,5,SNR11,a,b,0,None,None,No,71.0203131027196,0,72,1527,0,0,13
4,4,6,SNR07,a,b,0.954555601520042,b,HIT,No,84.52330850776,85.478097036127,85,1540,86,1541,13.5
4,4,7,SNR07,a,b,1.40366336625084,b,HIT,No,99.5261298591406,100.929952311293,100,1555,101,1556,15
4,4,8,SNR07,a,b,0,None,None,No,114.528980290739,0,115,1570,0,0,15
4,4,9,SNR11,a,b,0,None,None,No,129.031749326237,0,130,1585,0,0,14.5
4,4,10,SNR11,a,b,0,None,None,No,143.034519359585,0,144,1599,0,0,14
4,4,11,SNR07,a,b,1.12376227320783,b,HIT,No,156.037479269653,157.161436836483,157,1612,158,1613,13
4,4,12,SNR11,a,b,0,None,None,No,170.540235760743,0,171,1626,0,0,14.5
4,4,13,SNR09,a,b,1.00690826245955,b,HIT,No,184.04301990655,185.050136862341,185,1640,186,1641,13.5
4,4,14,SNR09,a,b,1.19310776016937,b,HIT,No,199.045849240735,200.239127490813,200,1655,201,1656,15
4,4,15,SNR07,a,b,1.30600429531842,b,HIT,No,213.548641654448,214.854991206085,214,1669,215,1670,14.5
4,4,16,SNR09,a,b,1.06213159711115,b,HIT,No,228.051399856138,229.113727602173,229,1684,230,1685,14.5
4,4,17,SNR09,a,b,0,None,None,No,242.054251428138,0,243,1698,0,0,14
4,4,18,SNR07,a,b,1.07145636869609,b,HIT,No,256.057037997297,257.128624086575,257,1712,258,1713,14
4,4,19,SNR07,a,b,1.24211020889561,b,HIT,No,270.059980231154,271.302323366896,271,1726,272,1727,14
4,4,20,SNR11,a,b,0,None,None,No,285.062824675649,0,286,1741,0,0,15
4,4,21,SNR09,a,b,0,None,None,No,299.065627780618,0,300,1755,0,0,14
4,4,22,SNR09,a,b,0,None,None,No,312.568418198629,0,313,1768,0,0,13.5
4,4,23,SNR09,a,b,1.11743732571449,b,HIT,No,327.071340332923,328.188931612735,328,1783,329,1784,14.5
4,4,24,SNR09,a,b,0,None,None,No,342.074062184341,0,343,1798,0,0,15
4,4,25,SNR11,a,b,0,None,None,No,357.07707255714,0,358,1813,0,0,15
4,4,26,catch,catch,None,0,None,None,No,370.07962363355,0,371,1826,0,0,13
4,4,27,SNR07,a,b,0.899723424316107,b,HIT,No,383.582341636116,384.482280025967,384,1839,385,1840,13.5
4,4,28,SNR07,a,b,1.11280729879218,b,HIT,No,396.585134192378,397.698407629965,397,1852,398,1853,13
4,4,29,SNR07,a,b,1.08006040702639,b,HIT,No,411.08787842416,412.168053441459,412,1867,413,1868,14.5
4,4,30,catch,catch,None,0,None,None,No,425.090545821443,0,426,1881,0,0,14
4,4,31,SNR09,a,b,1.37015753780543,b,HIT,No,438.093322982296,439.463727987059,439,1894,440,1895,13
4,4,32,catch,catch,None,0,None,None,No,453.096049395317,0,454,1909,0,0,15
4,4,33,SNR11,a,b,0,None,None,No,466.09876354903,0,467,1922,0,0,13
4,5,1,SNR11,a,b,0,None,None,No,18.5077289233277,0,19,1959,0,0,14.5
4,5,2,SNR09,a,b,1.24557161018129,b,HIT,No,33.0106251135055,34.2567503882352,34,1974,35,1975,14.5
4,5,3,SNR07,a,b,0.949692362650239,b,HIT,No,46.5134098295129,47.4633205789016,47,1987,48,1988,13.5
4,5,4,SNR07,a,b,1.06375039593331,b,HIT,No,59.5162180662852,60.5801934062601,60,2000,61,2001,13
4,5,5,SNR09,a,b,1.19699310542273,b,HIT,No,73.0190763381391,74.2161983088427,74,2014,75,2015,13.5
4,5,6,SNR07,a,b,1.10789131639103,b,HIT,No,86.0218569201939,87.1300093883489,87,2027,88,2028,13
4,5,7,catch,catch,None,0,None,None,No,100.024566227204,0,101,2041,0,0,14
4,5,8,SNR09,a,b,1.07203398166166,b,HIT,No,115.02739727199,116.099657623194,116,2056,117,2057,15
4,5,9,SNR09,a,b,1.12219194141471,b,HIT,No,129.030166450038,130.152548553273,130,2070,131,2071,14
4,5,10,catch,catch,None,0,None,None,No,142.03273577286,0,143,2083,0,0,13
4,5,11,SNR11,a,b,0,None,None,No,157.035626688684,0,158,2098,0,0,15
4,5,12,SNR09,a,b,0.988354512950536,b,HIT,No,170.538624374526,171.527172755599,171,2111,172,2112,13.5
4,5,13,SNR11,a,b,0,None,None,No,183.541664397744,0,184,2124,0,0,13
4,5,14,SNR07,a,b,0.966148345036345,b,HIT,No,198.544554458268,199.511008145597,199,2139,200,2140,15
4,5,15,SNR11,a,b,0,None,None,No,212.047353429285,0,213,2153,0,0,13.5
4,5,16,SNR11,a,b,0,None,None,No,227.050149691849,0,228,2168,0,0,15
4,5,17,SNR11,a,b,0,None,None,No,241.552983445088,0,242,2182,0,0,14.5
4,5,18,SNR09,a,b,1.03237711683323,b,HIT,No,256.555798239164,257.588378632426,257,2197,258,2198,15
4,5,19,SNR07,a,b,1.07634697718277,b,HIT,No,271.05870754395,272.135221019638,272,2212,273,2213,14.5
4,5,20,SNR09,a,b,1.15739040962944,b,HIT,No,284.061630961195,285.219165346415,285,2225,286,2226,13
4,5,21,SNR07,a,b,1.1381395901808,b,HIT,No,298.064587735161,299.20296224789,299,2239,300,2240,14
4,5,22,SNR07,a,b,1.15324049141054,b,HIT,No,312.067379721223,313.220795549244,313,2253,314,2254,14
4,5,23,SNR09,a,b,0,None,None,No,326.070156596976,0,327,2267,0,0,14
4,5,24,SNR07,a,b,1.80355343162228,b,HIT,No,341.072939174732,342.876663666462,342,2282,343,2283,15
4,5,25,SNR11,a,b,0,None,None,No,355.075703220976,0,356,2296,0,0,14
4,5,26,SNR11,a,b,0,None,None,No,368.078426782995,0,369,2309,0,0,13
4,5,27,SNR07,a,b,1.19490845290602,b,HIT,No,381.581178997582,382.77624739169,382,2322,383,2323,13.5
4,5,28,SNR11,a,b,0,None,None,No,395.583968417742,0,396,2336,0,0,14
4,5,29,SNR11,a,b,0,None,None,No,409.086661901692,0,410,2350,0,0,13.5
4,5,30,SNR09,a,b,0,None,None,No,422.089527728701,0,423,2363,0,0,13
4,5,31,SNR09,a,b,0,None,None,No,436.592319002013,0,437,2377,0,0,14.5
4,5,32,catch,catch,None,0,None,None,No,451.594930519661,0,452,2392,0,0,15
4,5,33,SNR07,a,b,1.20042514138913,b,HIT,No,466.097677602444,467.298587129038,467,2407,468,2408,14.5
4,6,1,catch,catch,None,0,None,None,No,17.0069002796548,0,18,2442,0,0,13
4,6,2,catch,catch,None,0,None,None,No,31.0095423030221,0,32,2456,0,0,14
4,6,3,catch,catch,None,0,None,None,No,46.0122898134561,0,47,2471,0,0,15
4,6,4,SNR11,a,b,0,None,None,No,59.51522734316,0,60,2484,0,0,13.5
4,6,5,SNR09,a,b,1.21449112896516,b,HIT,No,74.0184465518416,75.2330964816072,75,2499,76,2500,14.5
4,6,6,SNR11,a,b,0,None,None,No,87.521356426828,0,88,2512,0,0,13.5
4,6,7,SNR07,a,b,1.14415634437682,b,HIT,No,102.524318047497,103.668703042218,103,2527,104,2528,15
4,6,8,SNR11,a,b,0,None,None,No,117.527352938912,0,118,2542,0,0,15
4,6,9,SNR09,a,b,0,None,None,No,130.53040664694,0,131,2555,0,0,13
4,6,10,SNR07,a,b,1.05563387891016,b,HIT,No,145.033376963164,146.089251466627,146,2570,147,2571,14.5
4,6,11,SNR07,a,b,1.03468785379118,b,HIT,No,158.536243788023,159.571318522759,159,2583,160,2584,13.5
4,6,12,SNR07,a,b,1.30877774986948,b,HIT,No,172.539209400095,173.848110883443,173,2597,174,2598,14
4,6,13,SNR11,a,b,0,None,None,No,186.542201526483,0,187,2611,0,0,14
4,6,14,SNR07,a,b,1.12541271814916,b,HIT,No,199.545202776077,200.670804800745,200,2624,201,2625,13
4,6,15,SNR09,a,b,0,None,None,No,213.048199321519,0,214,2638,0,0,13.5
4,6,16,SNR09,a,b,0,None,None,No,228.051129866268,0,229,2653,0,0,15
4,6,17,SNR11,a,b,1.80896520323768,b,HIT,No,243.054279938156,244.863431882012,244,2668,245,2669,15
4,6,18,SNR11,a,b,0,None,None,No,256.057066222214,0,257,2681,0,0,13
4,6,19,SNR09,a,b,1.37292443505248,b,HIT,No,269.560057065652,270.933179075129,270,2694,271,2695,13.5
4,6,20,SNR11,a,b,0,None,None,No,283.562926028763,0,284,2708,0,0,14
4,6,21,SNR07,a,b,1.1470330051925,b,HIT,No,298.06571074477,299.212917946173,299,2723,300,2724,14.5
4,6,22,SNR09,a,b,0,None,None,No,312.068417200778,0,313,2737,0,0,14
4,6,23,SNR07,a,b,1.04309659849969,b,HIT,No,325.571215316494,326.614567079653,326,2750,327,2751,13.5
4,6,24,SNR11,a,b,0,None,None,No,340.074024836217,0,341,2765,0,0,14.5
4,6,25,SNR07,a,b,1.12640914327676,b,HIT,No,355.076835353791,356.203392464061,356,2780,357,2781,15
4,6,26,SNR07,a,b,1.24532186242322,b,HIT,No,369.079629050454,370.325220332547,370,2794,371,2795,14
4,6,27,SNR11,a,b,0,None,None,No,383.582405498556,0,384,2808,0,0,14.5
4,6,28,SNR09,a,b,0,None,None,No,397.58520005052,0,398,2822,0,0,14
4,6,29,SNR09,a,b,1.25753869023174,b,HIT,No,412.087933163395,413.345722171585,413,2837,414,2838,14.5
4,6,30,SNR11,a,b,0,None,None,No,425.090694643737,0,426,2850,0,0,13
4,6,31,SNR07,a,b,1.12882707790232,b,HIT,No,438.093456979381,439.222533234841,439,2863,440,2864,13
4,6,32,SNR09,a,b,0,None,None,No,451.096167426791,0,452,2876,0,0,13
4,6,33,SNR09,a,b,0,None,None,No,466.098993624875,0,467,2891,0,0,15
4,0,0,None,None,None,0,None,None,No,0,0,0,0,0,0,0
4,0,0,None,None,None,0,None,None,No,0,0,0,0,0,0,0
4,0,0,None,None,None,0,None,None,No,0,0,0,0,0,0,0
4,0,0,None,None,None,0,None,None,No,0,0,0,0,0,0,0
4,0,0,None,None,None,0,None,None,No,0,0,0,0,0,0,0
4,0,0,None,None,None,0,None,None,No,0,0,0,0,0,0,0
4,0,0,None,None,None,0,None,None,No,0,0,0,0,0,0,0
4,0,0,None,None,None,0,None,None,No,0,0,0,0,0,0,0
4,0,0,None,None,None,0,None,None,No,0,0,0,0,0,0,0
4,0,0,None,None,None,0,None,None,No,0,0,0,0,0,0,0
4,0,0,None,None,None,0,None,None,No,0,0,0,0,0,0,0
4,0,0,None,None,None,0,None,None,No,0,0,0,0,0,0,0
4,0,0,None,None,None,0,None,None,No,0,0,0,0,0,0,0
4,0,0,None,None,None,0,None,None,No,0,0,0,0,0,0,0
4,0,0,None,None,None,0,None,None,No,0,0,0,0,0,0,0
4,0,0,None,None,None,0,None,None,No,0,0,0,0,0,0,0
4,0,0,None,None,None,0,None,None,No,0,0,0,0,0,0,0
4,0,0,None,None,None,0,None,None,No,0,0,0,0,0,0,0
4,0,0,None,None,None,0,None,None,No,0,0,0,0,0,0,0
4,0,0,None,None,None,0,None,None,No,0,0,0,0,0,0,0
4,0,0,None,None,None,0,None,None,No,0,0,0,0,0,0,0
