subject,block,trial,SNR,stim,correct_resp,RT,response,status,IsDouble,time_stim,time_resp,volume_stim,volume_stim_global,volume_resp,volume_resp_global,ISI
23,1,1,catch,catch,None,0,None,None,No,19.0714881164848,0,20,20,0,0,14
23,1,2,SNR11,a,b,0,None,None,No,32.079035554182,0,33,33,0,0,13
23,1,3,SNR07,a,b,0.93681112845843,b,HIT,No,46.0828413467186,47.0207307212902,47,47,48,48,14
23,1,4,SNR07,a,b,0.849391654797728,b,HIT,No,59.5882305815915,60.4377473950463,60,60,61,61,13.5
23,1,5,SNR09,a,b,0.894845344952046,b,HIT,No,73.5956463033435,74.4906666993581,74,74,75,75,14
23,1,6,SNR09,a,b,0.982574721714627,b,HIT,No,86.6000827358599,87.5828282321439,87,87,88,88,13
23,1,7,SNR11,a,b,1.09285346914658,b,HIT,No,101.603007286001,102.696776779676,102,102,103,103,15
23,1,8,catch,catch,None,0,None,None,No,116.607021771334,0,117,117,0,0,15
23,1,9,SNR07,a,b,0.844151241835789,b,HIT,No,131.109350178529,131.953837552615,132,132,132,132,14.5
23,1,10,SNR11,a,b,0,None,None,No,145.612266175687,0,146,146,0,0,14.5
23,1,11,SNR09,a,b,1.03709257863375,b,HIT,No,160.115171339067,161.152434977369,161,161,162,162,14.5
23,1,12,SNR09,a,b,1.04917879954883,b,HIT,No,173.618059681578,174.667408115299,174,174,175,175,13.5
23,1,13,SNR07,a,b,0.796028450644371,b,HIT,No,188.120935194615,188.917120164856,189,189,189,189,14.5
23,1,14,SNR07,a,b,1.52905248908974,b,HIT,No,202.123765661938,203.652941884188,203,203,204,204,14
23,1,15,SNR11,a,b,0,None,None,No,217.126758065749,0,218,218,0,0,15
23,1,16,SNR11,a,b,1.37566214346953,b,HIT,No,230.129606209238,231.505471913713,231,231,232,232,13
23,1,17,SNR11,a,b,0,None,None,No,244.132589489866,0,245,245,0,0,14
23,1,18,catch,catch,None,0,None,None,No,257.135313615095,0,258,258,0,0,13
23,1,19,SNR11,a,b,0,None,None,No,271.638160333087,0,272,272,0,0,14.5
23,1,20,SNR11,a,b,0,None,None,No,285.641088874621,0,286,286,0,0,14
23,1,21,SNR09,a,b,0,None,None,No,300.64414400031,0,301,301,0,0,15
23,1,22,SNR09,a,b,1.11427669699697,b,HIT,No,314.647003547778,315.761490648168,315,315,316,316,14
23,1,23,SNR07,a,b,1.00528545867382,b,HIT,No,327.649828598212,328.655332728162,328,328,329,329,13
23,1,24,SNR11,a,b,0,None,None,No,341.152821287121,0,342,342,0,0,13.5
23,1,25,SNR07,a,b,1.00813103626933,b,HIT,No,354.155764368727,355.164033108029,355,355,356,356,13
23,1,26,SNR07,a,b,0,None,None,No,367.658579440681,0,368,368,0,0,13.5
23,1,27,SNR09,a,b,0,None,None,No,382.161466642794,0,383,383,0,0,14.5
23,1,28,SNR11,a,b,0,None,None,No,395.664384350549,0,396,396,0,0,13.5
23,1,29,SNR09,a,b,1.05781360654328,b,HIT,No,409.167307190094,410.225451511996,410,410,411,411,13.5
23,1,30,SNR07,a,b,1.2129148339518,b,HIT,No,424.170199238899,425.383267456354,425,425,426,426,15
23,1,31,SNR09,a,b,0,None,None,No,439.173069620145,0,440,440,0,0,15
23,1,32,SNR07,a,b,0.995734056952642,b,HIT,No,454.176006144463,455.171901852804,455,455,456,456,15
23,1,33,SNR09,a,b,0,None,None,No,467.17887139392,0,468,468,0,0,13
23,2,1,SNR07,a,b,0.936456464743969,b,HIT,No,19.50871406464,20.4452691737932,20,505,21,506,14.5
23,2,2,SNR07,a,b,0.831430104448373,b,HIT,No,32.5113945696538,33.3429598112414,33,518,34,519,13
23,2,3,SNR07,a,b,0.889206362962796,b,HIT,No,45.5142897545522,46.4036648963892,46,531,47,532,13
23,2,4,SNR11,a,b,0.967120621015056,b,HIT,No,58.5172111685998,59.4845322145271,59,544,60,545,13
23,2,5,SNR11,a,b,1.09416378621063,b,HIT,No,71.5201468376199,72.6144497523626,72,557,73,558,13
23,2,6,SNR09,a,b,1.05812522023916,b,HIT,No,84.5230813662422,85.5813209113603,85,570,86,571,13
23,2,7,SNR11,a,b,0,None,None,No,99.0259865296213,0,100,585,0,0,14.5
23,2,8,SNR11,a,b,0,None,None,No,114.028852349276,0,115,600,0,0,15
23,2,9,SNR09,a,b,1.26072544124872,b,HIT,No,128.531747534175,129.792813384165,129,614,130,615,14.5
23,2,10,SNR07,a,b,1.16982091193131,b,HIT,No,142.534748205869,143.704771823507,143,628,144,629,14
23,2,11,SNR11,a,b,1.07545099881645,b,HIT,No,156.537716091127,157.613383480426,157,642,158,643,14
23,2,12,SNR07,a,b,0.890356169038569,b,HIT,No,171.540589893567,172.431206643501,172,657,173,658,15
23,2,13,SNR07,a,b,1.06133486982981,b,HIT,No,186.043563765913,187.105033772881,187,672,188,673,14.5
23,2,14,SNR09,a,b,1.09828290304358,b,HIT,No,199.546475486579,200.644908637031,200,685,201,686,13.5
23,2,15,SNR09,a,b,1.05408650145364,b,HIT,No,213.049360978096,214.103663584932,214,699,215,700,13.5
23,2,16,SNR11,a,b,0,None,None,No,226.55241382299,0,227,712,0,0,13.5
23,2,17,SNR11,a,b,0,None,None,No,241.555378001955,0,242,727,0,0,15
23,2,18,SNR11,a,b,0,None,None,No,255.558282595135,0,256,741,0,0,14
23,2,19,SNR09,a,b,1.15258722047474,b,HIT,No,269.561207430376,270.71402216021,270,755,271,756,14
23,2,20,SNR09,a,b,1.48838419317508,b,HIT,No,284.564158494766,286.052818379107,285,770,287,772,15
23,2,21,SNR09,a,b,0,None,None,No,299.567060522051,0,300,785,0,0,15
23,2,22,SNR07,a,b,0,None,None,No,313.070040096386,0,314,799,0,0,13.5
23,2,23,catch,catch,None,0,None,None,No,326.073107481352,0,327,812,0,0,13
23,2,24,SNR09,a,b,0.968984316108617,b,HIT,No,340.075905162239,341.045105013531,341,826,342,827,14
23,2,25,SNR11,a,b,0,None,None,No,354.578777824281,0,355,840,0,0,14.5
23,2,26,SNR09,a,b,1.41081975214547,b,HIT,No,369.081778781074,370.492835735961,370,855,371,856,14.5
23,2,27,SNR07,a,b,0.89462724387522,b,HIT,No,384.084726709371,384.979648746076,385,870,385,870,15
23,2,27,SNR07,a,b,12.943508114502,b,FA,No,0,397.030940417636,0,0,398,883,15
23,2,28,SNR09,a,b,0,None,None,No,397.089298279026,0,398,883,0,0,13
23,2,29,SNR07,a,b,0.971597537652997,b,HIT,No,410.592014136371,411.563771044616,411,896,412,897,13.5
23,2,30,catch,catch,None,0,None,None,No,424.594785588109,0,425,910,0,0,14
23,2,31,SNR07,a,b,0,None,None,No,438.597714984941,0,439,924,0,0,14
23,2,32,catch,catch,None,0,None,None,No,453.6003723969,0,454,939,0,0,15
23,2,33,SNR11,a,b,0,None,None,No,467.103311772212,0,468,953,0,0,13.5
23,3,1,catch,catch,None,0,None,None,No,20.007399756183,0,21,992,0,0,15
23,3,2,SNR11,a,b,0.87608608634946,b,HIT,No,34.0110276466637,34.8874093811403,35,1006,35,1006,14
23,3,3,SNR11,a,b,0,None,None,No,48.0139296739489,0,49,1020,0,0,14
23,3,4,SNR11,a,b,0,None,None,No,63.0168955635105,0,64,1035,0,0,15
23,3,5,SNR07,a,b,0.880411044981884,b,HIT,No,76.0221108877198,76.9024671936065,77,1048,77,1048,13
23,3,6,SNR07,a,b,0.867295900156023,b,HIT,No,89.5248478424244,90.3923390357024,90,1061,91,1062,13.5
23,3,7,SNR09,a,b,0.877164902662116,b,HIT,No,102.52788415155,103.405193029433,103,1074,104,1075,13
23,3,8,SNR07,a,b,0.894068448957114,b,HIT,No,117.030852321907,117.925085558344,118,1089,118,1089,14.5
23,3,9,SNR09,a,b,0.912869046980632,b,HIT,No,130.033733822032,130.946849480036,131,1102,131,1102,13
23,3,10,SNR07,a,b,1.03393424694332,b,HIT,No,144.036684601323,145.070778218858,145,1116,146,1117,14
23,3,11,SNR07,a,b,0.891926781900111,b,HIT,No,157.53958548821,158.431705852636,158,1129,159,1130,13.5
23,3,12,SNR09,a,b,1.11278306098757,b,HIT,No,172.542579887716,173.655519183201,173,1144,174,1145,15
23,3,13,SNR07,a,b,1.04340296982264,b,HIT,No,187.545536939195,188.589167133279,188,1159,189,1160,15
23,3,14,SNR09,a,b,0,None,None,No,201.548941026609,0,202,1173,0,0,14
23,3,15,SNR11,a,b,0,None,None,No,215.051852462176,0,216,1187,0,0,13.5
23,3,16,catch,catch,None,0,None,None,No,229.055006232274,0,230,1201,0,0,14
23,3,17,SNR09,a,b,1.04541434643215,b,HIT,No,242.557817312835,243.603500222948,243,1214,244,1215,13.5
23,3,18,SNR11,a,b,0,None,None,No,257.060743573573,0,258,1229,0,0,14.5
23,3,19,SNR07,a,b,1.41441742208553,b,HIT,No,270.063652443245,271.478216691546,271,1242,272,1243,13
23,3,20,SNR09,a,b,0,None,None,No,284.566569295702,0,285,1256,0,0,14.5
23,3,21,SNR11,a,b,1.03846077088565,b,HIT,No,298.069451936224,299.108069226708,299,1270,300,1271,13.5
23,3,22,catch,catch,None,0,None,None,No,311.072231085647,0,312,1283,0,0,13
23,3,23,SNR09,a,b,0,None,None,No,325.575126840745,0,326,1297,0,0,14.5
23,3,24,SNR09,a,b,0,None,None,No,339.078102138588,0,340,1311,0,0,13.5
23,3,25,SNR11,a,b,0,None,None,No,352.081123337443,0,353,1324,0,0,13
23,3,26,SNR11,a,b,0,None,None,No,365.084062427656,0,366,1337,0,0,13
23,3,27,SNR11,a,b,0,None,None,No,379.586941076786,0,380,1351,0,0,14.5
23,3,28,SNR07,a,b,0,None,None,No,394.089827708701,0,395,1366,0,0,14.5
23,3,29,SNR09,a,b,0,None,None,No,408.092706072732,0,409,1380,0,0,14
23,3,30,SNR07,a,b,0,None,None,No,422.095665975205,0,423,1394,0,0,14
23,3,31,SNR09,a,b,0,None,None,No,437.098551181623,0,438,1409,0,0,15
23,3,32,SNR07,a,b,1.0973834142842,b,HIT,No,452.101465753284,453.199037048103,453,1424,454,1425,15
23,3,33,SNR11,a,b,0,None,None,No,467.104420238868,0,468,1439,0,0,15
23,4,1,SNR11,a,b,1.13111353002205,b,HIT,No,18.5073267707242,19.6386652442105,19,1475,20,1476,13.5
23,4,2,SNR09,a,b,0.8621110815875,b,HIT,No,33.5101905946832,34.3725117945642,34,1490,35,1491,15
23,4,3,SNR09,a,b,0,None,None,No,47.0130840689849,0,48,1504,0,0,13.5
23,4,4,SNR11,a,b,0.91696193466305,b,HIT,No,61.5159912280602,62.4331977780489,62,1518,63,1519,14.5
23,4,5,SNR11,a,b,0,None,None,No,74.518856192417,0,75,1531,0,0,13
23,4,6,SNR09,a,b,0.946088549608248,b,HIT,No,88.5217140292877,89.4679505455093,89,1545,90,1546,14
23,4,7,SNR07,a,b,1.04698039770119,b,HIT,No,101.524530811838,102.571701655972,102,1558,103,1559,13
23,4,8,SNR07,a,b,0.88886395852569,b,HIT,No,115.527554291488,116.416602709357,116,1572,117,1573,14
23,4,9,SNR09,a,b,0.999787600911077,b,HIT,No,129.030397873386,130.030368793242,130,1586,131,1587,13.5
23,4,10,SNR11,a,b,0,None,None,No,144.033279658611,0,145,1601,0,0,15
23,4,11,SNR07,a,b,0.927773761042772,b,HIT,No,158.536215897829,159.464137340387,159,1615,160,1616,14.5
23,4,12,SNR07,a,b,1.0013627753633,b,HIT,No,172.039229398999,173.040814266833,173,1629,174,1630,13.5
23,4,13,SNR07,a,b,1.04537272191374,b,HIT,No,185.042110614024,186.087696020126,186,1642,187,1643,13
23,4,14,SNR11,a,b,0.985306259528443,b,HIT,No,200.045132097978,201.030596017503,201,1657,202,1658,15
23,4,15,catch,catch,None,0,None,None,No,214.047787229141,0,215,1671,0,0,14
23,4,16,SNR11,a,b,0.962358034730642,b,HIT,No,227.050795313421,228.013290480986,228,1684,229,1685,13
23,4,17,SNR09,a,b,0.951147924419274,b,HIT,No,240.05372157416,241.00565437736,241,1697,242,1698,13
23,4,18,SNR07,a,b,0.915232236307929,b,HIT,No,254.056662945169,254.972042007693,255,1711,255,1711,14
23,4,19,SNR09,a,b,0,None,None,No,268.559538173106,0,269,1725,0,0,14.5
23,4,20,SNR07,a,b,0.862839510678896,b,HIT,No,283.062453029866,283.925542287661,284,1740,284,1740,14.5
23,4,21,SNR07,a,b,1.41378735230501,b,HIT,No,298.06530887104,299.479335136682,299,1755,300,1756,15
23,4,22,SNR07,a,b,0.995724648671967,b,HIT,No,313.068190086066,314.064139963302,314,1770,315,1771,15
23,4,23,SNR09,a,b,0,None,None,No,326.071579918507,0,327,1783,0,0,13
23,4,24,SNR11,a,b,0,None,None,No,340.074510740837,0,341,1797,0,0,14
23,4,25,SNR07,a,b,0.871359707693045,b,HIT,No,353.577405640636,354.448902766263,354,1810,355,1811,13.5
23,4,26,catch,catch,None,0,None,None,No,366.580069039682,0,367,1823,0,0,13
23,4,27,SNR11,a,b,0,None,None,No,380.58294939941,0,381,1837,0,0,14
23,4,28,SNR09,a,b,0,None,None,No,395.085861405175,0,396,1852,0,0,14.5
23,4,29,SNR11,a,b,1.15539744573834,b,HIT,No,409.588704987074,410.744284611358,410,1866,411,1867,14.5
23,4,30,catch,catch,None,0,None,None,No,424.591486132193,0,425,1881,0,0,15
23,4,31,SNR09,a,b,0,None,None,No,438.594404125047,0,439,1895,0,0,14
23,4,32,SNR11,a,b,0,None,None,No,452.097304441735,0,453,1909,0,0,13.5
23,4,33,SNR09,a,b,0,None,None,No,467.100216162402,0,468,1924,0,0,15
23,5,1,SNR09,a,b,1.03971235746576,b,HIT,No,20.0077917679245,21.0476603598867,21,1968,22,1969,15
23,5,2,SNR09,a,b,0.959610816444183,b,HIT,No,33.5106832465301,34.470449157075,34,1981,35,1982,13.5
23,5,3,catch,catch,None,0,None,None,No,48.5134219118313,0,49,1996,0,0,15
23,5,4,SNR11,a,b,0,None,None,No,63.0164106093488,0,64,2011,0,0,14.5
23,5,5,SNR09,a,b,0,None,None,No,77.0193411465788,0,78,2025,0,0,14
23,5,6,SNR07,a,b,0.884225390500433,b,HIT,No,90.5222919258696,91.4067818886584,91,2038,92,2039,13.5
23,5,7,SNR07,a,b,0.863184195910435,b,HIT,No,105.025163447514,105.888538945155,106,2053,106,2053,14.5
23,5,8,SNR07,a,b,0.906297219595217,b,HIT,No,118.528098831434,119.434542877246,119,2066,120,2067,13.5
23,5,9,SNR07,a,b,0.894107507581793,b,HIT,No,131.53097491467,132.425245214036,132,2079,133,2080,13
23,5,10,SNR09,a,b,0.851983493883381,b,HIT,No,146.033929400253,146.886079107114,147,2094,147,2094,14.5
23,5,11,SNR09,a,b,0.999901355589827,b,HIT,No,160.036976543158,161.03703213755,161,2108,162,2109,14
23,5,12,SNR09,a,b,0.924755413183448,b,HIT,No,174.539858898581,175.464850944306,175,2122,176,2123,14.5
23,5,13,catch,catch,None,0,None,None,No,187.542644320192,0,188,2135,0,0,13
23,5,14,SNR07,a,b,0.994709694634366,b,HIT,No,200.545581414709,201.540542567058,201,2148,202,2149,13
23,5,15,SNR11,a,b,0,None,None,No,214.548406180044,0,215,2162,0,0,14
23,5,16,SNR09,a,b,0.962603220254096,b,HIT,No,227.551231515577,228.514164595894,228,2175,229,2176,13
23,5,17,SNR11,a,b,0,None,None,No,242.054146657437,0,243,2190,0,0,14.5
23,5,18,SNR11,a,b,0.853544983561733,b,HIT,No,257.057055812208,257.910768719345,258,2205,258,2205,15
23,5,19,SNR09,a,b,0,None,None,No,270.559876586151,0,271,2218,0,0,13.5
23,5,20,catch,catch,None,0,None,None,No,284.562581894817,0,285,2232,0,0,14
23,5,21,SNR09,a,b,0,None,None,No,299.565619914539,0,300,2247,0,0,15
23,5,22,SNR11,a,b,0,None,None,No,313.068489440487,0,314,2261,0,0,13.5
23,5,23,SNR11,a,b,0,None,None,No,326.571344141263,0,327,2274,0,0,13.5
23,5,24,SNR09,a,b,0.867392833968552,b,HIT,No,339.574284942074,340.441840567827,340,2287,341,2288,13
23,5,25,SNR07,a,b,0.826162892139109,b,HIT,No,354.07714990643,354.903593906626,355,2302,355,2302,14.5
23,5,26,SNR07,a,b,0.929155923169674,b,HIT,No,368.079976952561,369.009393171526,369,2316,370,2317,14
23,5,27,SNR07,a,b,0.837302582885968,b,HIT,No,383.0828510401,383.920322116761,384,2331,384,2331,15
23,5,28,SNR11,a,b,0,None,None,No,398.085728548832,0,399,2346,0,0,15
23,5,29,SNR07,a,b,0.8550768228979,b,HIT,No,413.088616606245,413.943863063314,414,2361,414,2361,15
23,5,30,SNR07,a,b,0,None,None,No,427.091504948756,0,428,2375,0,0,14
23,5,31,SNR11,a,b,0,None,None,No,441.094312037925,0,442,2389,0,0,14
23,5,32,SNR11,a,b,0,None,None,No,454.097199810238,0,455,2402,0,0,13
23,5,33,SNR11,a,b,0,None,None,No,467.100136904755,0,468,2415,0,0,13
23,6,1,SNR07,a,b,0.936526884306659,b,HIT,No,20.0067286320814,20.9434325631467,21,2454,21,2454,15
23,6,2,SNR07,a,b,0.943418593275055,b,HIT,No,35.0096055706151,35.9532368480773,36,2469,36,2469,15
23,6,3,SNR07,a,b,0.878321551124827,b,HIT,No,49.0125477969225,49.8911259375495,50,2483,50,2483,14
23,6,4,SNR11,a,b,0,None,None,No,63.0154227397601,0,64,2497,0,0,14
23,6,5,SNR07,a,b,0.921316258536535,b,HIT,No,76.0183849230288,76.9398559905666,77,2510,77,2510,13
23,6,6,SNR09,a,b,1.03024106869088,b,HIT,No,89.0212809632256,90.0516779813134,90,2523,91,2524,13
23,6,7,SNR11,a,b,1.21529912063852,b,HIT,No,102.024128251417,103.239584746951,103,2536,104,2537,13
23,6,8,SNR09,a,b,1.07307070352181,b,HIT,No,117.027021440619,118.100287437264,118,2551,119,2552,15
23,6,9,SNR07,a,b,1.15295129246988,b,HIT,No,131.029958820236,132.183108541922,132,2565,133,2566,14
23,6,10,SNR09,a,b,1.03912961419155,b,HIT,No,145.532757071322,146.572065442868,146,2579,147,2580,14.5
23,6,11,catch,catch,None,0,None,None,No,158.53538369254,0,159,2592,0,0,13
23,6,12,SNR07,a,b,1.0500466422709,b,HIT,No,173.038317080764,174.088612044653,174,2607,175,2608,14.5
23,6,13,SNR11,a,b,0,None,None,No,186.041256741176,0,187,2620,0,0,13
23,6,14,SNR11,a,b,0,None,None,No,201.044171027738,0,202,2635,0,0,15
23,6,15,SNR11,a,b,0,None,None,No,216.047084459001,0,217,2650,0,0,15
23,6,16,SNR09,a,b,1.00272925701938,b,HIT,No,230.049934027988,231.052868841709,231,2664,232,2665,14
23,6,17,SNR11,a,b,0,None,None,No,244.552731138676,0,245,2678,0,0,14.5
23,6,18,catch,catch,None,0,None,None,No,258.555448421518,0,259,2692,0,0,14
23,6,19,catch,catch,None,0,None,None,No,273.558153159985,0,274,2707,0,0,15
23,6,20,SNR09,a,b,0.954079316947173,b,HIT,No,287.561074288933,288.515315827467,288,2721,289,2722,14
23,6,21,SNR07,a,b,1.17186364947884,b,HIT,No,301.06400140497,302.236071466449,302,2735,303,2736,13.5
23,6,22,SNR11,a,b,0,None,None,No,314.566873781913,0,315,2748,0,0,13.5
23,6,23,SNR09,a,b,1.01675900087503,b,HIT,No,328.06972791249,329.086698457156,329,2762,330,2763,13.5
23,6,23,SNR09,a,b,10.9426830366974,b,FA,No,0,339.014717118625,0,0,340,2773,13.5
23,6,24,SNR09,a,b,1.28094611962479,b,HIT,No,341.072556669217,342.353676984606,342,2775,343,2776,13
23,6,25,SNR09,a,b,1.08284932950301,b,HIT,No,356.075461547497,357.158482791968,357,2790,358,2791,15
23,6,26,SNR09,a,b,0,None,None,No,369.578329077749,0,370,2803,0,0,13.5
23,6,27,SNR09,a,b,0,None,None,No,384.081198888796,0,385,2818,0,0,14.5
23,6,28,SNR11,a,b,0,None,None,No,398.584114030656,0,399,2832,0,0,14.5
23,6,29,SNR11,a,b,0,None,None,No,412.086948489372,0,413,2846,0,0,13.5
23,6,30,SNR07,a,b,0.898541659300463,b,HIT,No,426.589868192823,427.488585188285,427,2860,428,2861,14.5
23,6,31,SNR11,a,b,0,None,None,No,440.592747697252,0,441,2874,0,0,14
23,6,32,SNR07,a,b,0,None,None,No,453.5955137321,0,454,2887,0,0,13
23,6,33,SNR07,a,b,0,None,None,No,467.098422601772,0,468,2901,0,0,13.5
23,0,0,None,None,None,0,None,None,No,0,0,0,0,0,0,0
23,0,0,None,None,None,0,None,None,No,0,0,0,0,0,0,0
23,0,0,None,None,None,0,None,None,No,0,0,0,0,0,0,0
23,0,0,None,None,None,0,None,None,No,0,0,0,0,0,0,0
23,0,0,None,None,None,0,None,None,No,0,0,0,0,0,0,0
23,0,0,None,None,None,0,None,None,No,0,0,0,0,0,0,0
23,0,0,None,None,None,0,None,None,No,0,0,0,0,0,0,0
23,0,0,None,None,None,0,None,None,No,0,0,0,0,0,0,0
23,0,0,None,None,None,0,None,None,No,0,0,0,0,0,0,0
23,0,0,None,None,None,0,None,None,No,0,0,0,0,0,0,0
23,0,0,None,None,None,0,None,None,No,0,0,0,0,0,0,0
23,0,0,None,None,None,0,None,None,No,0,0,0,0,0,0,0
23,0,0,None,None,None,0,None,None,No,0,0,0,0,0,0,0
23,0,0,None,None,None,0,None,None,No,0,0,0,0,0,0,0
23,0,0,None,None,None,0,None,None,No,0,0,0,0,0,0,0
23,0,0,None,None,None,0,None,None,No,0,0,0,0,0,0,0
23,0,0,None,None,None,0,None,None,No,0,0,0,0,0,0,0
23,0,0,None,None,None,0,None,None,No,0,0,0,0,0,0,0
23,0,0,None,None,None,0,None,None,No,0,0,0,0,0,0,0
23,0,0,None,None,None,0,None,None,No,0,0,0,0,0,0,0
