subject,block,trial,SNR,stim,correct_resp,RT,response,status,IsDouble,time_stim,time_resp,volume_stim,volume_stim_global,volume_resp,volume_resp_global,ISI
11,1,1,catch,catch,None,0,None,None,No,19.0619696602091,0,20,20,0,0,14
11,1,2,SNR11,a,b,0,None,None,No,32.0696496888559,0,33,33,0,0,13
11,1,3,SNR07,a,b,1.04354933758259,b,HIT,No,46.0734763034709,47.1181643311735,47,47,48,48,14
11,1,4,SNR07,a,b,1.31922439066147,b,HIT,No,59.5787125959255,60.8980895151843,60,60,61,61,13.5
11,1,5,SNR09,a,b,2.31346935843067,b,HIT,No,73.586287422606,75.8999312623466,74,74,76,76,14
11,1,6,SNR09,a,b,0,None,None,No,86.5908484552845,0,87,87,0,0,13
11,1,7,SNR11,a,b,0,None,None,No,101.594029603092,0,102,102,0,0,15
11,1,8,catch,catch,None,0,None,None,No,116.597887008526,0,117,117,0,0,15
11,1,9,SNR07,a,b,1.22592022497884,b,HIT,No,131.100148850804,132.326798932243,132,132,133,133,14.5
11,1,10,SNR11,a,b,0,None,None,No,145.603051598286,0,146,146,0,0,14.5
11,1,11,SNR09,a,b,0,None,None,No,160.10605299043,0,161,161,0,0,14.5
11,1,12,SNR09,a,b,0,None,None,No,173.609021881154,0,174,174,0,0,13.5
11,1,13,SNR07,a,b,0,None,None,No,188.111779227544,0,189,189,0,0,14.5
11,1,14,SNR07,a,b,1.07780982620534,b,HIT,No,202.114618255136,203.193367771534,203,203,204,204,14
11,1,15,SNR11,a,b,0,None,None,No,217.117567046297,0,218,218,0,0,15
11,1,16,SNR11,a,b,0,None,None,No,230.120389823178,0,231,231,0,0,13
11,1,17,SNR11,a,b,0,None,None,No,244.123173256235,0,245,245,0,0,14
11,1,18,catch,catch,None,0,None,None,No,257.125714354138,0,258,258,0,0,13
11,1,19,SNR11,a,b,0,None,None,No,271.628478542933,0,272,272,0,0,14.5
11,1,20,SNR11,a,b,0,None,None,No,285.631205241054,0,286,286,0,0,14
11,1,21,SNR09,a,b,0,None,None,No,300.63406793196,0,301,301,0,0,15
11,1,22,SNR09,a,b,1.42034685858198,b,HIT,No,314.636837965308,316.057440843851,315,315,317,317,14
11,1,23,SNR07,a,b,1.18541005531188,b,HIT,No,327.63966159749,328.825528668391,328,328,329,329,13
11,1,24,SNR11,a,b,0,None,None,No,341.14246570031,0,342,342,0,0,13.5
11,1,25,SNR07,a,b,1.30259050576569,b,HIT,No,354.145210074642,355.448036358256,355,355,356,356,13
11,1,26,SNR07,a,b,1.17379992068527,b,HIT,No,367.647940906716,368.821942393228,368,368,369,369,13.5
11,1,27,SNR09,a,b,1.35089702495134,b,HIT,No,382.150827403487,383.501890071643,383,383,384,384,14.5
11,1,28,SNR11,a,b,0,None,None,No,395.653688526343,0,396,396,0,0,13.5
11,1,29,SNR09,a,b,0,None,None,No,409.15650517357,0,410,410,0,0,13.5
11,1,30,SNR07,a,b,1.59689856620207,b,HIT,No,424.159297159632,425.756408410569,425,425,426,426,15
11,1,31,SNR09,a,b,1.31607175287354,b,HIT,No,439.162093137097,440.478314282464,440,440,441,441,15
11,1,32,SNR07,a,b,1.17384069001128,b,HIT,No,454.165008571537,455.33907420559,455,455,456,456,15
11,1,33,SNR09,a,b,0,None,None,No,467.16781880401,0,468,468,0,0,13
11,2,1,SNR07,a,b,1.06642007401751,b,HIT,No,19.5086808728285,20.575194174605,20,504,21,505,14.5
11,2,2,SNR07,a,b,1.05047128485239,b,HIT,No,32.5112738589649,33.5619264675318,33,517,34,518,13
11,2,3,SNR07,a,b,1.10265545158472,b,HIT,No,45.5140681258284,46.6168806676134,46,530,47,531,13
11,2,4,SNR11,a,b,0,None,None,No,58.5169000259156,0,59,543,0,0,13
11,2,5,SNR11,a,b,1.77954086896898,b,HIT,No,71.5198017755469,73.2995099983208,72,556,74,558,13
11,2,6,SNR09,a,b,1.31245269118881,b,HIT,No,84.5227508518081,85.8353899985146,85,569,86,570,13
11,2,7,SNR11,a,b,1.42943100561388,b,HIT,No,99.0256347826781,100.455244546105,100,584,101,585,14.5
11,2,7,SNR11,a,b,12.9364631441003,b,FA,No,0,111.964567749639,0,0,112,596,14.5
11,2,8,SNR11,a,b,1.86517726531201,b,HIT,No,114.028852708409,115.894129758785,115,599,116,600,15
11,2,8,SNR11,a,b,14.3381062904791,b,FA,No,0,128.369134883461,0,0,129,613,15
11,2,9,SNR09,a,b,1.43672500861612,b,HIT,No,128.533339472491,129.970018865079,129,613,130,614,14.5
11,2,10,SNR07,a,b,0,None,None,No,142.535950419938,0,143,627,0,0,14
11,2,11,SNR11,a,b,0,None,None,No,156.538717602285,0,157,641,0,0,14
11,2,12,SNR07,a,b,1.45979531517696,b,HIT,No,171.541633036725,173.002131123845,172,656,174,658,15
11,2,13,SNR07,a,b,1.2088683832153,b,HIT,No,186.044342486285,187.253463753361,187,671,188,672,14.5
11,2,14,SNR09,a,b,0,None,None,No,199.547096696573,0,200,684,0,0,13.5
11,2,15,SNR09,a,b,0,None,None,No,213.049853757863,0,214,698,0,0,13.5
11,2,16,SNR11,a,b,0,None,None,No,226.552765913651,0,227,711,0,0,13.5
11,2,17,SNR11,a,b,0,None,None,No,241.555526538693,0,242,726,0,0,15
11,2,18,SNR11,a,b,0,None,None,No,255.558337056267,0,256,740,0,0,14
11,2,19,SNR09,a,b,0,None,None,No,269.561100532311,0,270,754,0,0,14
11,2,20,SNR09,a,b,0,None,None,No,284.563866004056,0,285,769,0,0,15
11,2,21,SNR09,a,b,1.48993040419555,b,HIT,No,299.566604106184,301.056659669358,300,784,302,786,15
11,2,22,SNR07,a,b,1.48685474345439,b,HIT,No,313.069320683248,314.556339359306,314,798,315,799,13.5
11,2,23,catch,catch,None,0,None,None,No,326.072204756668,0,327,811,0,0,13
11,2,24,SNR09,a,b,1.28688490705281,b,HIT,No,340.074909787176,341.361995119655,341,825,342,826,14
11,2,25,SNR11,a,b,0,None,None,No,354.577742685113,0,355,839,0,0,14.5
11,2,26,SNR09,a,b,0,None,None,No,369.080519703416,0,370,854,0,0,14.5
11,2,27,SNR07,a,b,1.24918554006035,b,HIT,No,384.083329080589,385.332670855549,385,869,386,870,15
11,2,28,SNR09,a,b,0,None,None,No,397.086109662644,0,398,882,0,0,13
11,2,29,SNR07,a,b,1.16229641352584,b,HIT,No,410.588872996138,411.751353584379,411,895,412,896,13.5
11,2,30,catch,catch,None,0,None,None,No,424.591464556773,0,425,909,0,0,14
11,2,31,SNR07,a,b,0.971620272788641,b,HIT,No,438.594250270631,439.56609149606,439,923,440,924,14
11,2,32,catch,catch,None,0,None,None,No,453.596923940119,0,454,938,0,0,15
11,2,33,SNR11,a,b,0,None,None,No,467.099744578749,0,468,952,0,0,13.5
11,3,1,catch,catch,None,0,None,None,No,20.0071329214016,0,21,991,0,0,15
11,3,2,SNR11,a,b,0,None,None,No,34.0105834888792,0,35,1005,0,0,14
11,3,3,SNR11,a,b,0,None,None,No,48.0134213760702,0,49,1019,0,0,14
11,3,4,SNR11,a,b,0,None,None,No,63.0165549121478,0,64,1034,0,0,15
11,3,5,SNR07,a,b,1.19217747828407,b,HIT,No,76.0216248486474,77.2147765142455,77,1047,78,1048,13
11,3,6,SNR07,a,b,1.04228092688209,b,HIT,No,89.5242410704485,90.5667018955456,90,1060,91,1061,13.5
11,3,7,SNR09,a,b,1.24207884787575,b,HIT,No,102.527267693959,103.769522733746,103,1073,104,1074,13
11,3,8,SNR07,a,b,1.0837669944649,b,HIT,No,117.030484906939,118.114391030292,118,1088,119,1089,14.5
11,3,9,SNR09,a,b,1.03366263354474,b,HIT,No,130.033366129357,131.06724800494,131,1101,132,1102,13
11,3,10,SNR07,a,b,1.33273215208646,b,HIT,No,144.036251628278,145.369141440765,145,1115,146,1116,14
11,3,11,SNR07,a,b,1.14266241943551,b,HIT,No,157.539118738238,158.682083934063,158,1128,159,1129,13.5
11,3,12,SNR09,a,b,0,None,None,No,172.541940374719,0,173,1143,0,0,15
11,3,13,SNR07,a,b,1.29875533814447,b,HIT,No,187.544878332073,188.843795322019,188,1158,189,1159,15
11,3,14,SNR09,a,b,0,None,None,No,201.547663760831,0,202,1172,0,0,14
11,3,15,SNR11,a,b,0,None,None,No,215.050406852212,0,216,1186,0,0,13.5
11,3,16,catch,catch,None,0,None,None,No,229.053336541661,0,230,1200,0,0,14
11,3,17,SNR09,a,b,0,None,None,No,242.556024608707,0,243,1213,0,0,13.5
11,3,18,SNR11,a,b,0,None,None,No,257.05877026599,0,258,1228,0,0,14.5
11,3,19,SNR07,a,b,1.12002175884663,b,HIT,No,270.061666883818,271.181907599602,271,1241,272,1242,13
11,3,20,SNR09,a,b,0,None,None,No,284.564473837639,0,285,1255,0,0,14.5
11,3,21,SNR11,a,b,0,None,None,No,298.067498607998,0,299,1269,0,0,13.5
11,3,22,catch,catch,None,0,None,None,No,311.070158022477,0,312,1282,0,0,13
11,3,23,SNR09,a,b,0,None,None,No,325.572996337318,0,326,1296,0,0,14.5
11,3,24,SNR09,a,b,1.09225642252386,b,HIT,No,339.075739428699,340.168245028779,340,1310,341,1311,13.5
11,3,25,SNR11,a,b,0,None,None,No,352.078486939133,0,353,1323,0,0,13
11,3,26,SNR11,a,b,0,None,None,No,365.081274078492,0,366,1336,0,0,13
11,3,27,SNR11,a,b,0,None,None,No,379.584094717122,0,380,1350,0,0,14.5
11,3,28,SNR07,a,b,1.02669307454562,b,HIT,No,394.086828685298,395.114089109202,395,1365,396,1366,14.5
11,3,29,SNR09,a,b,1.08783052733088,b,HIT,No,408.0896845338,409.177693248742,409,1379,410,1380,14
11,3,30,SNR07,a,b,1.11074317349085,b,HIT,No,422.092649860771,423.203557822165,423,1393,424,1394,14
11,3,31,SNR09,a,b,1.14263419451527,b,HIT,No,437.095430157726,438.238304976794,438,1408,439,1409,15
11,3,32,SNR07,a,b,1.05463460278042,b,HIT,No,452.098299120837,453.153182616074,453,1423,454,1424,15
11,3,33,SNR11,a,b,0,None,None,No,467.101185189958,0,468,1438,0,0,15
11,4,1,SNR11,a,b,0,None,None,No,18.5071789650806,0,19,1474,0,0,13.5
11,4,2,SNR09,a,b,1.28828503403747,b,HIT,No,33.5101129310323,34.7985781483827,34,1489,35,1490,15
11,4,2,SNR09,a,b,9.30817447789013,b,FA,No,0,42.8206007117811,0,0,43,1498,15
11,4,3,SNR09,a,b,0,None,None,No,47.0129985725034,0,48,1503,0,0,13.5
11,4,4,SNR11,a,b,0,None,None,No,61.5159107282913,0,62,1517,0,0,14.5
11,4,5,SNR11,a,b,0,None,None,No,74.5188569535506,0,75,1530,0,0,13
11,4,6,SNR09,a,b,0,None,None,No,88.5217598435826,0,89,1544,0,0,14
11,4,7,SNR07,a,b,0,None,None,No,101.524826951318,0,102,1557,0,0,13
11,4,8,SNR07,a,b,0.991636016020493,b,HIT,No,115.527860132133,116.519692011978,116,1571,117,1572,14
11,4,9,SNR09,a,b,1.78672026169988,b,HIT,No,129.030816763548,130.817700387651,130,1585,131,1586,13.5
11,4,10,SNR11,a,b,1.65586441091546,b,HIT,No,144.033551159374,145.689563537284,145,1600,146,1601,15
11,4,11,SNR07,a,b,1.04563484540085,b,HIT,No,158.536471012867,159.582350759322,159,1614,160,1615,14.5
11,4,12,SNR07,a,b,0,None,None,No,172.039192436634,0,173,1628,0,0,13.5
11,4,13,SNR07,a,b,1.1278816857066,b,HIT,No,185.041998107505,186.170150068182,186,1641,187,1642,13
11,4,14,SNR11,a,b,0,None,None,No,200.044885317027,0,201,1656,0,0,15
11,4,15,catch,catch,None,0,None,None,No,214.047483434967,0,215,1670,0,0,14
11,4,16,SNR11,a,b,0,None,None,No,227.050229805,0,228,1683,0,0,13
11,4,17,SNR09,a,b,0,None,None,No,240.053133265232,0,241,1696,0,0,13
11,4,18,SNR07,a,b,1.39230554528331,b,HIT,No,254.0559340894,255.448427800803,255,1710,256,1711,14
11,4,19,SNR09,a,b,0.998178209851176,b,HIT,No,268.558853942893,269.557279619699,269,1724,270,1725,14.5
11,4,20,SNR07,a,b,1.1113378924656,b,HIT,No,283.06159047697,284.173161581382,284,1739,285,1740,14.5
11,4,21,SNR07,a,b,1.05838623604723,b,HIT,No,298.064549531737,299.123108823594,299,1754,300,1755,15
11,4,22,SNR07,a,b,1.13923437487028,b,HIT,No,313.067448145266,314.20686070775,314,1769,315,1770,15
11,4,23,SNR09,a,b,0,None,None,No,326.070376694315,0,327,1782,0,0,13
11,4,24,SNR11,a,b,0,None,None,No,340.073100826534,0,341,1796,0,0,14
11,4,25,SNR07,a,b,1.13536841643145,b,HIT,No,353.575921465164,354.711976117728,354,1809,355,1810,13.5
11,4,26,catch,catch,None,0,None,None,No,366.578551514324,0,367,1822,0,0,13
11,4,27,SNR11,a,b,0,None,None,No,380.581377712407,0,381,1836,0,0,14
11,4,28,SNR09,a,b,0,None,None,No,395.084704974057,0,396,1851,0,0,14.5
11,4,29,SNR11,a,b,0,None,None,No,409.587619980847,0,410,1865,0,0,14.5
11,4,30,catch,catch,None,0,None,None,No,424.590416243412,0,425,1880,0,0,15
11,4,31,SNR09,a,b,0,None,None,No,438.593346788161,0,439,1894,0,0,14
11,4,32,SNR11,a,b,0,None,None,No,452.096157448285,0,453,1908,0,0,13.5
11,4,33,SNR09,a,b,0,None,None,No,467.099086282433,0,468,1923,0,0,15
11,5,1,SNR09,a,b,1.14561434669668,b,HIT,No,20.0078633480626,21.1536632949769,21,1962,22,1963,15
11,5,1,SNR09,a,b,6.01608193094944,b,FA,No,0,26.0262993511975,0,0,27,1968,15
11,5,2,SNR09,a,b,0.138255625954116,b,HIT,No,33.5106771442883,33.6490584994208,34,1975,34,1975,13.5
11,5,3,catch,catch,None,7.32279298961475,b,FA,No,48.5133288610618,55.8363217059026,49,1990,56,1997,15
11,5,4,SNR11,a,b,0,None,None,No,63.0163177087981,0,64,2005,0,0,14.5
11,5,5,SNR09,a,b,0,None,None,No,77.0193657148217,0,78,2019,0,0,14
11,5,6,SNR07,a,b,1.03973070577376,b,HIT,No,90.5221718133426,91.5620792812282,91,2032,92,2033,13.5
11,5,7,SNR07,a,b,0,None,None,No,105.025017255688,0,106,2047,0,0,14.5
11,5,8,SNR07,a,b,0.957788637560952,b,HIT,No,118.527917152169,119.485814983098,119,2060,120,2061,13.5
11,5,9,SNR07,a,b,1.02559087725058,b,HIT,No,131.530766443367,132.556644416498,132,2073,133,2074,13
11,5,10,SNR09,a,b,0,None,None,No,146.03367147165,0,147,2088,0,0,14.5
11,5,11,SNR09,a,b,1.0217651179355,b,HIT,No,160.036465168313,161.058397354955,161,2102,162,2103,14
11,5,12,SNR09,a,b,0,None,None,No,174.53943833554,0,175,2116,0,0,14.5
11,5,13,catch,catch,None,0,None,None,No,187.542062682696,0,188,2129,0,0,13
11,5,14,SNR07,a,b,0.933869017564575,b,HIT,No,200.544807912328,201.478902444135,201,2142,202,2143,13
11,5,15,SNR11,a,b,0,None,None,No,214.547523206442,0,215,2156,0,0,14
11,5,16,SNR09,a,b,0,None,None,No,227.550305784198,0,228,2169,0,0,13
11,5,17,SNR11,a,b,0,None,None,No,242.053000978749,0,243,2184,0,0,14.5
11,5,18,SNR11,a,b,0,None,None,No,257.055883911768,0,258,2199,0,0,15
11,5,19,SNR09,a,b,0,None,None,No,270.558636696556,0,271,2212,0,0,13.5
11,5,20,catch,catch,None,0,None,None,No,284.561137310234,0,285,2226,0,0,14
11,5,21,SNR09,a,b,1.22894798888774,b,HIT,No,299.564001426641,300.79313900715,300,2241,301,2242,15
11,5,22,SNR11,a,b,0,None,None,No,313.066720284507,0,314,2255,0,0,13.5
11,5,23,SNR11,a,b,0,None,None,No,326.569444274176,0,327,2268,0,0,13.5
11,5,24,SNR09,a,b,0.934107076214787,b,HIT,No,339.572298697178,340.506642691642,340,2281,341,2282,13
11,5,25,SNR07,a,b,0,None,None,No,354.075057754169,0,355,2296,0,0,14.5
11,5,26,SNR07,a,b,0,None,None,No,368.07787939065,0,369,2310,0,0,14
11,5,27,SNR07,a,b,1.10132973574946,b,HIT,No,383.080659687604,384.18215848776,384,2325,385,2326,15
11,5,28,SNR11,a,b,0,None,None,No,398.083466213776,0,399,2340,0,0,15
11,5,29,SNR07,a,b,0,None,None,No,413.08632576858,0,414,2355,0,0,15
11,5,30,SNR07,a,b,1.00942797784955,b,HIT,No,427.089157383567,428.098783791142,428,2369,429,2370,14
11,5,31,SNR11,a,b,9.76634871344322,b,FA,No,441.09201323207,450.858573489846,442,2383,451,2392,14
11,5,32,SNR11,a,b,0,None,None,No,454.094730521884,0,455,2396,0,0,13
11,5,33,SNR11,a,b,0,None,None,No,467.097440113994,0,468,2409,0,0,13
11,6,1,SNR07,a,b,0,None,None,No,20.0068067667958,0,21,2448,0,0,15
11,6,2,SNR07,a,b,0,None,None,No,35.009694261418,0,36,2463,0,0,15
11,6,3,SNR07,a,b,0,None,None,No,49.01262879757,0,50,2477,0,0,14
11,6,4,SNR11,a,b,0,None,None,No,63.0154769483675,0,64,2491,0,0,14
11,6,5,SNR07,a,b,0,None,None,No,76.0184545346467,0,77,2504,0,0,13
11,6,6,SNR09,a,b,0,None,None,No,89.0213063917465,0,90,2517,0,0,13
11,6,7,SNR11,a,b,0,None,None,No,102.024074999594,0,103,2530,0,0,13
11,6,8,SNR09,a,b,0,None,None,No,117.027003263542,0,118,2545,0,0,15
11,6,9,SNR07,a,b,1.13938319716544,b,HIT,No,131.029876503155,132.169464687349,132,2559,133,2560,14
11,6,10,SNR09,a,b,0,None,None,No,145.532591369618,0,146,2573,0,0,14.5
11,6,11,catch,catch,None,0,None,None,No,158.535149003333,0,159,2586,0,0,13
11,6,12,SNR07,a,b,1.03523980773934,b,HIT,No,173.038040917008,174.073408734728,174,2601,175,2602,14.5
11,6,13,SNR11,a,b,0,None,None,No,186.04092841163,0,187,2614,0,0,13
11,6,14,SNR11,a,b,0,None,None,No,201.043758316016,0,202,2629,0,0,15
11,6,15,SNR11,a,b,0,None,None,No,216.046547736176,0,217,2644,0,0,15
11,6,16,SNR09,a,b,2.71107520115947,b,HIT,No,230.04926388559,232.76060822132,231,2658,233,2660,14
11,6,17,SNR11,a,b,0,None,None,No,244.551996713365,0,245,2672,0,0,14.5
11,6,18,catch,catch,None,0,None,None,No,258.554580576296,0,259,2686,0,0,14
11,6,19,catch,catch,None,0,None,None,No,273.557184681339,0,274,2701,0,0,15
11,6,20,SNR09,a,b,1.54774729518249,b,HIT,No,287.560063622956,289.107972569941,288,2715,290,2717,14
11,6,21,SNR07,a,b,1.124758128135,b,HIT,No,301.062885972187,302.187896699082,302,2729,303,2730,13.5
11,6,22,SNR11,a,b,0,None,None,No,314.565639327175,0,315,2742,0,0,13.5
11,6,23,SNR09,a,b,0,None,None,No,328.068500450031,0,329,2756,0,0,13.5
11,6,24,SNR09,a,b,0,None,None,No,341.07143127988,0,342,2769,0,0,13
11,6,25,SNR09,a,b,0.995128208125607,b,HIT,No,356.074127757382,357.069442991225,357,2784,358,2785,15
11,6,26,SNR09,a,b,0,None,None,No,369.577013969053,0,370,2797,0,0,13.5
11,6,27,SNR09,a,b,0,None,None,No,384.079893053221,0,385,2812,0,0,14.5
11,6,28,SNR11,a,b,1.14215893251639,b,HIT,No,398.582741061468,399.725075045495,399,2826,400,2827,14.5
11,6,29,SNR11,a,b,0.0731461574614514,b,HIT,No,412.085506960863,412.15883330164,413,2840,413,2840,13.5
11,6,30,SNR07,a,b,0,None,None,No,426.588392602335,0,427,2854,0,0,14.5
11,6,31,SNR11,a,b,0,None,None,No,440.591231059726,0,441,2868,0,0,14
11,6,32,SNR07,a,b,1.20413457982795,b,HIT,No,453.594141932563,454.798442155597,454,2881,455,2882,13
11,6,33,SNR07,a,b,0,None,None,No,467.096810612797,0,468,2895,0,0,13.5
11,0,0,None,None,None,0,None,None,No,0,0,0,0,0,0,0
11,0,0,None,None,None,0,None,None,No,0,0,0,0,0,0,0
11,0,0,None,None,None,0,None,None,No,0,0,0,0,0,0,0
11,0,0,None,None,None,0,None,None,No,0,0,0,0,0,0,0
11,0,0,None,None,None,0,None,None,No,0,0,0,0,0,0,0
11,0,0,None,None,None,0,None,None,No,0,0,0,0,0,0,0
11,0,0,None,None,None,0,None,None,No,0,0,0,0,0,0,0
11,0,0,None,None,None,0,None,None,No,0,0,0,0,0,0,0
11,0,0,None,None,None,0,None,None,No,0,0,0,0,0,0,0
11,0,0,None,None,None,0,None,None,No,0,0,0,0,0,0,0
11,0,0,None,None,None,0,None,None,No,0,0,0,0,0,0,0
11,0,0,None,None,None,0,None,None,No,0,0,0,0,0,0,0
11,0,0,None,None,None,0,None,None,No,0,0,0,0,0,0,0
11,0,0,None,None,None,0,None,None,No,0,0,0,0,0,0,0
11,0,0,None,None,None,0,None,None,No,0,0,0,0,0,0,0
11,0,0,None,None,None,0,None,None,No,0,0,0,0,0,0,0
11,0,0,None,None,None,0,None,None,No,0,0,0,0,0,0,0
11,0,0,None,None,None,0,None,None,No,0,0,0,0,0,0,0
