subject,block,trial,SNR,stim,correct_resp,RT,response,status,IsDouble,time_stim,time_resp,volume_stim,volume_stim_global,volume_resp,volume_resp_global,ISI
21,1,1,catch,catch,None,0,None,None,No,19.0810073019671,0,20,20,0,0,14
21,1,2,SNR11,a,b,0,None,None,No,32.088904271588,0,33,33,0,0,13
21,1,3,SNR07,a,b,0.968804133257436,b,HIT,No,46.0926903922626,47.0625856011094,47,47,48,48,14
21,1,4,SNR07,a,b,1.0904061754818,b,HIT,No,59.5980015098867,60.6885029085846,60,60,61,61,13.5
21,1,5,SNR09,a,b,0,None,None,No,73.6056612767666,0,74,74,0,0,14
21,1,6,SNR09,a,b,0,None,None,No,86.6127479937552,0,87,87,0,0,13
21,1,7,SNR11,a,b,0,None,None,No,101.615798557853,0,102,102,0,0,15
21,1,8,catch,catch,None,0,None,None,No,116.619858659097,0,117,117,0,0,15
21,1,9,SNR07,a,b,0.988056613908157,b,HIT,No,131.122279723613,132.110691001235,132,132,133,133,14.5
21,1,10,SNR11,a,b,0,None,None,No,145.625222805219,0,146,146,0,0,14.5
21,1,11,SNR09,a,b,0,None,None,No,160.12835946935,0,161,161,0,0,14.5
21,1,12,SNR09,a,b,0,None,None,No,173.631327639707,0,174,174,0,0,13.5
21,1,13,SNR07,a,b,0.980531699066887,b,HIT,No,188.134284976285,189.115656008129,189,189,190,190,14.5
21,1,14,SNR07,a,b,0.946246779802095,b,HIT,No,202.137185007874,203.084263707867,203,203,204,204,14
21,1,15,SNR11,a,b,0,None,None,No,217.140068788795,0,218,218,0,0,15
21,1,16,SNR11,a,b,0,None,None,No,230.143066039296,0,231,231,0,0,13
21,1,17,SNR11,a,b,0,None,None,No,244.145995151029,0,245,245,0,0,14
21,1,18,catch,catch,None,0,None,None,No,257.148744650109,0,258,258,0,0,13
21,1,19,SNR11,a,b,0,None,None,No,271.651609614466,0,272,272,0,0,14.5
21,1,20,SNR11,a,b,0,None,None,No,285.654427252314,0,286,286,0,0,14
21,1,21,SNR09,a,b,0,None,None,No,300.657387439887,0,301,301,0,0,15
21,1,22,SNR09,a,b,0,None,None,No,314.660302581747,0,315,315,0,0,14
21,1,23,SNR07,a,b,0.999565223341051,b,HIT,No,327.663220574601,328.663164695109,328,328,329,329,13
21,1,24,SNR11,a,b,0,None,None,No,341.166170213494,0,342,342,0,0,13.5
21,1,25,SNR07,a,b,0.96840870032247,b,HIT,No,354.169114435497,355.137713867351,355,355,356,356,13
21,1,26,SNR07,a,b,1.1313376181879,b,HIT,No,367.672025585965,368.803635189027,368,368,369,369,13.5
21,1,27,SNR09,a,b,0,None,None,No,382.174978360952,0,383,383,0,0,14.5
21,1,28,SNR11,a,b,0,None,None,No,395.677843895508,0,396,396,0,0,13.5
21,1,29,SNR09,a,b,0,None,None,No,409.180753335378,0,410,410,0,0,13.5
21,1,30,SNR07,a,b,1.01700019500822,b,HIT,No,424.183664770945,425.200923266054,425,425,426,426,15
21,1,31,SNR09,a,b,0,None,None,No,439.186773210231,0,440,440,0,0,15
21,1,32,SNR07,a,b,0,None,None,No,454.189830901815,0,455,455,0,0,15
21,1,33,SNR09,a,b,0,None,None,No,467.192766570835,0,468,468,0,0,13
21,2,1,SNR07,a,b,1.13918925699636,b,HIT,No,19.561969216102,20.7022851861186,20,505,21,506,14.5
21,2,2,SNR07,a,b,0.909998665734747,b,HIT,No,32.5697059598329,33.4801653462761,33,518,34,519,13
21,2,3,SNR07,a,b,1.02106428764455,b,HIT,No,45.5735043397838,46.5947585036612,46,531,47,532,13
21,2,4,SNR11,a,b,0,None,None,No,58.577190390552,0,59,544,0,0,13
21,2,5,SNR11,a,b,0,None,None,No,71.5857108726666,0,72,557,0,0,13
21,2,6,SNR09,a,b,0,None,None,No,84.5890080477872,0,85,570,0,0,13
21,2,7,SNR11,a,b,0,None,None,No,99.0919673800615,0,100,585,0,0,14.5
21,2,8,SNR11,a,b,0,None,None,No,114.094882807021,0,115,600,0,0,15
21,2,9,SNR09,a,b,0.975731764754528,b,HIT,No,128.597793387289,129.57432827719,129,614,130,615,14.5
21,2,10,SNR07,a,b,0.974403486424308,b,HIT,No,142.60095628057,143.576208508052,143,628,144,629,14
21,2,11,SNR11,a,b,0,None,None,No,156.603905349264,0,157,642,0,0,14
21,2,12,SNR07,a,b,1.28406425229241,b,HIT,No,171.606901174268,172.891164140876,172,657,173,658,15
21,2,13,SNR07,a,b,1.04688118309423,b,HIT,No,186.109808618442,187.156868273791,187,672,188,673,14.5
21,2,14,SNR09,a,b,1.13083498786,b,HIT,No,199.612913921634,200.743875778749,200,685,201,686,13.5
21,2,15,SNR09,a,b,1.02337701437045,b,HIT,No,213.115938826782,214.139511704473,214,699,215,700,13.5
21,2,16,SNR11,a,b,0,None,None,No,226.618856534536,0,227,712,0,0,13.5
21,2,17,SNR11,a,b,0,None,None,No,241.621854640336,0,242,727,0,0,15
21,2,18,SNR11,a,b,0,None,None,No,255.624825661687,0,256,741,0,0,14
21,2,19,SNR09,a,b,0,None,None,No,269.627833175768,0,270,755,0,0,14
21,2,20,SNR09,a,b,0,None,None,No,284.63092308359,0,285,770,0,0,15
21,2,21,SNR09,a,b,0,None,None,No,299.633849914527,0,300,785,0,0,15
21,2,22,SNR07,a,b,0,None,None,No,313.136894776636,0,314,799,0,0,13.5
21,2,23,catch,catch,None,0,None,None,No,326.140532930697,0,327,812,0,0,13
21,2,24,SNR09,a,b,0,None,None,No,340.143284425473,0,341,826,0,0,14
21,2,25,SNR11,a,b,0,None,None,No,354.646329572682,0,355,840,0,0,14.5
21,2,26,SNR09,a,b,1.03805821046535,b,HIT,No,369.14936445631,370.187665856604,370,855,371,856,14.5
21,2,27,SNR07,a,b,0.983090751715281,b,HIT,No,384.152328635275,385.135552528433,385,870,386,871,15
21,2,28,SNR09,a,b,0,None,None,No,397.155278274168,0,398,883,0,0,13
21,2,29,SNR07,a,b,1.03262478517718,b,HIT,No,410.65833682105,411.691280347411,411,896,412,897,13.5
21,2,30,catch,catch,None,0,None,None,No,424.661316110286,0,425,910,0,0,14
21,2,31,SNR07,a,b,0.921479905620799,b,HIT,No,438.664138594825,439.585842018413,439,924,440,925,14
21,2,32,catch,catch,None,0,None,None,No,453.667363639785,0,454,939,0,0,15
21,2,33,SNR11,a,b,0,None,None,No,467.170168448158,0,468,953,0,0,13.5
21,3,1,catch,catch,None,0,None,None,No,20.0068928493637,0,21,993,0,0,15
21,3,2,SNR11,a,b,0,None,None,No,34.010675548845,0,35,1007,0,0,14
21,3,3,SNR11,a,b,0,None,None,No,48.0133417988863,0,49,1021,0,0,14
21,3,4,SNR11,a,b,0,None,None,No,63.0164764673213,0,64,1036,0,0,15
21,3,5,SNR07,a,b,0.946905074427377,b,HIT,No,76.0214235129498,76.9686245206053,77,1049,77,1049,13
21,3,6,SNR07,a,b,1.0148023633601,b,HIT,No,89.5241071540575,90.5391150741202,90,1062,91,1063,13.5
21,3,7,SNR09,a,b,1.00557483461398,b,HIT,No,102.527195066183,103.533049013157,103,1075,104,1076,13
21,3,8,SNR07,a,b,1.21643581213993,b,HIT,No,117.03014270938,118.246865901764,118,1090,119,1091,14.5
21,3,9,SNR09,a,b,0,None,None,No,130.033223779119,0,131,1103,0,0,13
21,3,10,SNR07,a,b,1.01719976462118,b,HIT,No,144.036216468028,145.053564769463,145,1117,146,1118,14
21,3,11,SNR07,a,b,1.25892047664092,b,HIT,No,157.5391253377,158.798292710463,158,1130,159,1131,13.5
21,3,12,SNR09,a,b,1.29094854867253,b,HIT,No,172.542095788853,173.833209125007,173,1145,174,1146,15
21,3,13,SNR07,a,b,1.14570577508857,b,HIT,No,187.545168590708,188.691005511543,188,1160,189,1161,15
21,3,14,SNR09,a,b,1.46784363321603,b,HIT,No,201.548039257054,203.016106978436,202,1174,204,1176,14
21,3,15,SNR11,a,b,0,None,None,No,215.05103878835,0,216,1188,0,0,13.5
21,3,16,catch,catch,None,0,None,None,No,229.054927544826,0,230,1202,0,0,14
21,3,17,SNR09,a,b,1.09364576051394,b,HIT,No,242.557441266663,243.651262648437,243,1215,244,1216,13.5
21,3,18,SNR11,a,b,0,None,None,No,257.060428823782,0,258,1230,0,0,14.5
21,3,19,SNR07,a,b,1.29225601474354,b,HIT,No,270.063519016703,271.355965477878,271,1243,272,1244,13
21,3,20,SNR09,a,b,0,None,None,No,284.56644071585,0,285,1257,0,0,14.5
21,3,21,SNR11,a,b,0,None,None,No,298.06937125308,0,299,1271,0,0,13.5
21,3,22,catch,catch,None,0,None,None,No,311.072215405178,0,312,1284,0,0,13
21,3,23,SNR09,a,b,0,None,None,No,325.575151929496,0,326,1298,0,0,14.5
21,3,24,SNR09,a,b,0,None,None,No,339.078113827665,0,340,1312,0,0,13.5
21,3,25,SNR11,a,b,0,None,None,No,352.081190050713,0,353,1325,0,0,13
21,3,26,SNR11,a,b,0,None,None,No,365.084043325993,0,366,1338,0,0,13
21,3,27,SNR11,a,b,0,None,None,No,379.586974148322,0,380,1352,0,0,14.5
21,3,28,SNR07,a,b,0.906299785490774,b,HIT,No,394.089925782912,394.997145584323,395,1367,396,1368,14.5
21,3,29,SNR09,a,b,1.24038331050633,b,HIT,No,408.092891672473,409.333458301925,409,1381,410,1382,14
21,3,30,SNR07,a,b,0.909327541632592,b,HIT,No,422.095839030571,423.005303705038,423,1395,424,1396,14
21,3,31,SNR09,a,b,1.68984658228419,b,HIT,No,437.098855382735,438.78896026512,438,1410,439,1411,15
21,3,32,SNR07,a,b,1.46371026141333,b,HIT,No,452.101856339528,453.565751630484,453,1425,454,1426,15
21,3,33,SNR11,a,b,1.29457558385548,b,HIT,No,467.104756656217,468.399532664984,468,1440,469,1441,15
21,4,1,SNR11,a,b,0,None,None,No,18.5075893473161,0,19,1478,0,0,13.5
21,4,2,SNR09,a,b,0.933850370685832,b,HIT,No,33.5106382008172,34.444645946399,34,1493,35,1494,15
21,4,3,SNR09,a,b,0,None,None,No,47.0138261828491,0,48,1507,0,0,13.5
21,4,4,SNR11,a,b,0,None,None,No,61.5169323413393,0,62,1521,0,0,14.5
21,4,5,SNR11,a,b,1.30103052046616,b,HIT,No,74.5198275262377,75.8210536249254,75,1534,76,1535,13
21,4,6,SNR09,a,b,1.34823044474433,b,HIT,No,88.5226813717161,89.8710503747917,89,1548,90,1549,14
21,4,7,SNR07,a,b,1.17756934473891,b,HIT,No,101.525899574289,102.703746320792,102,1561,103,1562,13
21,4,8,SNR07,a,b,0.815450280366349,b,HIT,No,115.529033957625,116.344611392346,116,1575,117,1576,14
21,4,9,SNR09,a,b,1.04919961180804,b,HIT,No,129.031999562087,130.081415564377,130,1589,131,1590,13.5
21,4,10,SNR11,a,b,0,None,None,No,144.035033305318,0,145,1604,0,0,15
21,4,11,SNR07,a,b,1.02888627610992,b,HIT,No,158.538034547211,159.567078483317,159,1618,160,1619,14.5
21,4,12,SNR07,a,b,1.51364257880414,b,HIT,No,172.040987892397,173.554841444793,173,1632,174,1633,13.5
21,4,13,SNR07,a,b,1.19250656013901,b,HIT,No,185.043983147201,186.236679298473,186,1645,187,1646,13
21,4,14,SNR11,a,b,0,None,None,No,200.046907412244,0,201,1660,0,0,15
21,4,15,catch,catch,None,0,None,None,No,214.049689127561,0,215,1674,0,0,14
21,4,16,SNR11,a,b,0,None,None,No,227.052938120875,0,228,1687,0,0,13
21,4,17,SNR09,a,b,0,None,None,No,240.055853547835,0,241,1700,0,0,13
21,4,18,SNR07,a,b,1.15609280329045,b,HIT,No,254.058776957578,255.215062773197,255,1714,256,1715,14
21,4,19,SNR09,a,b,0,None,None,No,268.562486386501,0,269,1728,0,0,14.5
21,4,20,SNR07,a,b,0,None,None,No,283.06541777903,0,284,1743,0,0,14.5
21,4,21,SNR07,a,b,0.982897454288832,b,HIT,No,298.068213179121,299.051337572572,299,1758,300,1759,15
21,4,22,SNR07,a,b,1.17281331574122,b,HIT,No,313.071141720655,314.244171426877,314,1773,315,1774,15
21,4,23,SNR09,a,b,0,None,None,No,326.074081381067,0,327,1786,0,0,13
21,4,24,SNR11,a,b,0,None,None,No,340.077072074281,0,341,1800,0,0,14
21,4,25,SNR07,a,b,1.28962910842529,b,HIT,No,353.579917651875,354.869720670964,354,1813,355,1814,13.5
21,4,26,catch,catch,None,0,None,None,No,366.58255653237,0,367,1826,0,0,13
21,4,27,SNR11,a,b,0,None,None,No,380.585349366566,0,381,1840,0,0,14
21,4,28,SNR09,a,b,0,None,None,No,395.088354599852,0,396,1855,0,0,14.5
21,4,29,SNR11,a,b,0,None,None,No,409.5913789348,0,410,1869,0,0,14.5
21,4,30,catch,catch,None,0,None,None,No,424.594347675356,0,425,1884,0,0,15
21,4,31,SNR09,a,b,0,None,None,No,438.59713680326,0,439,1898,0,0,14
21,4,32,SNR11,a,b,0,None,None,No,452.099981525556,0,453,1912,0,0,13.5
21,4,33,SNR09,a,b,1.26781529433174,b,HIT,No,467.103256748019,468.371296985815,468,1927,469,1928,15
21,5,1,SNR09,a,b,0,None,None,No,20.0073715313376,0,21,1966,0,0,15
21,5,2,SNR09,a,b,1.63781992434633,b,HIT,No,33.5104266570265,35.1485026006772,34,1979,36,1981,13.5
21,5,3,catch,catch,None,0,None,None,No,48.51324686077,0,49,1994,0,0,15
21,5,4,SNR11,a,b,0,None,None,No,63.0162335625913,0,64,2009,0,0,14.5
21,5,5,SNR09,a,b,0,None,None,No,77.0193323084958,0,78,2023,0,0,14
21,5,6,SNR07,a,b,1.19440560756266,b,HIT,No,90.5224182249252,91.7169737947991,91,2036,92,2037,13.5
21,5,7,SNR07,a,b,1.33119404210447,b,HIT,No,105.025374136006,106.356727263604,106,2051,107,2052,14.5
21,5,8,SNR07,a,b,0.992932669772927,b,HIT,No,118.528536744187,119.521622797464,119,2064,120,2065,13.5
21,5,9,SNR07,a,b,1.09306786393245,b,HIT,No,131.531330718781,132.624751535831,132,2077,133,2078,13
21,5,10,SNR09,a,b,0,None,None,No,146.034254983823,0,147,2092,0,0,14.5
21,5,11,SNR09,a,b,0,None,None,No,160.037359146618,0,161,2106,0,0,14
21,5,12,SNR09,a,b,1.22023305169387,b,HIT,No,174.540503793533,175.760898211514,175,2120,176,2121,14.5
21,5,13,catch,catch,None,0,None,None,No,187.543217084984,0,188,2133,0,0,13
21,5,14,SNR07,a,b,1.06910497019453,b,HIT,No,200.546145626517,201.615521726289,201,2146,202,2147,13
21,5,15,SNR11,a,b,0,None,None,No,214.549143732317,0,215,2160,0,0,14
21,5,16,SNR09,a,b,1.52854700776697,b,HIT,No,227.552344828923,229.081118775851,228,2173,230,2175,13
21,5,17,SNR11,a,b,0,None,None,No,242.055486909944,0,243,2188,0,0,14.5
21,5,18,SNR11,a,b,0,None,None,No,257.058785510562,0,258,2203,0,0,15
21,5,19,SNR09,a,b,0,None,None,No,270.561899936936,0,271,2216,0,0,13.5
21,5,20,catch,catch,None,0,None,None,No,284.56485413742,0,285,2230,0,0,14
21,5,21,SNR09,a,b,0,None,None,No,299.568002775728,0,300,2245,0,0,15
21,5,22,SNR11,a,b,0,None,None,No,313.070923904676,0,314,2259,0,0,13.5
21,5,23,SNR11,a,b,0,None,None,No,326.573800273011,0,327,2272,0,0,13.5
21,5,24,SNR09,a,b,0,None,None,No,339.576863666584,0,340,2285,0,0,13
21,5,25,SNR07,a,b,1.02771708327418,b,HIT,No,354.079733477632,355.10778384216,355,2300,356,2301,14.5
21,5,26,SNR07,a,b,0.95759972493579,b,HIT,No,368.082791454315,369.040569081307,369,2314,370,2315,14
21,5,27,SNR07,a,b,0.9156476262051,b,HIT,No,383.085728833932,384.001488789319,384,2329,385,2330,15
21,5,28,SNR11,a,b,0,None,None,No,398.088839268914,0,399,2344,0,0,15
21,5,29,SNR07,a,b,1.0971690194965,b,HIT,No,413.091738445204,414.189072537282,414,2359,415,2360,15
21,5,30,SNR07,a,b,0,None,None,No,427.094748525181,0,428,2373,0,0,14
21,5,31,SNR11,a,b,0,None,None,No,441.101250218101,0,442,2387,0,0,14
21,5,32,SNR11,a,b,0,None,None,No,454.104066715552,0,455,2400,0,0,13
21,5,33,SNR11,a,b,0,None,None,No,467.106927688516,0,468,2413,0,0,13
21,6,1,SNR07,a,b,0.964107975145453,b,HIT,No,20.0085475665622,20.9728274566734,21,2453,21,2453,15
21,6,2,SNR07,a,b,0.975639392532685,b,HIT,No,35.0118900724951,35.9876925419125,36,2468,36,2468,15
21,6,3,SNR07,a,b,1.08816643421596,b,HIT,No,49.0149109862502,50.1032735688863,50,2482,51,2483,14
21,6,4,SNR11,a,b,0,None,None,No,63.0178982582704,0,64,2496,0,0,14
21,6,5,SNR07,a,b,1.04767661055484,b,HIT,No,76.0209847448987,77.0688922860072,77,2509,78,2510,13
21,6,6,SNR09,a,b,0,None,None,No,89.0239991013665,0,90,2522,0,0,13
21,6,7,SNR11,a,b,0,None,None,No,102.027081881702,0,103,2535,0,0,13
21,6,8,SNR09,a,b,0,None,None,No,117.030119331225,0,118,2550,0,0,15
21,6,9,SNR07,a,b,1.52668131697646,b,HIT,No,131.033305032461,132.560256623715,132,2564,133,2565,14
21,6,10,SNR09,a,b,0,None,None,No,145.536317393233,0,146,2578,0,0,14.5
21,6,11,catch,catch,None,0,None,None,No,158.539180361894,0,159,2591,0,0,13
21,6,12,SNR07,a,b,1.13233917254911,b,HIT,No,173.042165923317,174.174789910216,174,2606,175,2607,14.5
21,6,13,SNR11,a,b,0,None,None,No,186.045154905934,0,187,2619,0,0,13
21,6,14,SNR11,a,b,0,None,None,No,201.048434689989,0,202,2634,0,0,15
21,6,15,SNR11,a,b,0,None,None,No,216.051369218611,0,217,2649,0,0,15
21,6,16,SNR09,a,b,1.25657923997096,b,HIT,No,230.054367894609,231.311148984989,231,2663,232,2664,14
21,6,17,SNR11,a,b,0,None,None,No,244.557238846054,0,245,2677,0,0,14.5
21,6,18,catch,catch,None,0,None,None,No,258.559915359676,0,259,2691,0,0,14
21,6,19,catch,catch,None,0,None,None,No,273.562640625303,0,274,2706,0,0,15
21,6,20,SNR09,a,b,0,None,None,No,287.5655363804,0,288,2720,0,0,14
21,6,21,SNR07,a,b,1.11850529201547,b,HIT,No,301.068464921934,302.187178906746,302,2734,303,2735,13.5
21,6,22,SNR11,a,b,0,None,None,No,314.571379493595,0,315,2747,0,0,13.5
21,6,23,SNR09,a,b,0,None,None,No,328.074207680123,0,329,2761,0,0,13.5
21,6,24,SNR09,a,b,0,None,None,No,341.077166157099,0,342,2774,0,0,13
21,6,25,SNR09,a,b,0,None,None,No,356.080088996644,0,357,2789,0,0,15
21,6,26,SNR09,a,b,1.10126988996308,b,HIT,No,369.582898651708,370.684369536782,370,2802,371,2803,13.5
21,6,27,SNR09,a,b,0,None,None,No,384.08578129223,0,385,2817,0,0,14.5
21,6,28,SNR11,a,b,0,None,None,No,398.588769134449,0,399,2831,0,0,14.5
21,6,29,SNR11,a,b,0,None,None,No,412.091648923978,0,413,2845,0,0,13.5
21,6,30,SNR07,a,b,1.40308757000639,b,HIT,No,426.594679531114,427.997877149507,427,2859,429,2861,14.5
21,6,31,SNR11,a,b,0,None,None,No,440.597669369029,0,441,2873,0,0,14
21,6,32,SNR07,a,b,1.10265490308302,b,HIT,No,453.600510670132,454.703411899139,454,2886,455,2887,13
21,6,33,SNR07,a,b,0,None,None,No,467.103529303091,0,468,2900,0,0,13.5
21,0,0,None,None,None,0,None,None,No,0,0,0,0,0,0,0
21,0,0,None,None,None,0,None,None,No,0,0,0,0,0,0,0
21,0,0,None,None,None,0,None,None,No,0,0,0,0,0,0,0
21,0,0,None,None,None,0,None,None,No,0,0,0,0,0,0,0
21,0,0,None,None,None,0,None,None,No,0,0,0,0,0,0,0
21,0,0,None,None,None,0,None,None,No,0,0,0,0,0,0,0
21,0,0,None,None,None,0,None,None,No,0,0,0,0,0,0,0
21,0,0,None,None,None,0,None,None,No,0,0,0,0,0,0,0
21,0,0,None,None,None,0,None,None,No,0,0,0,0,0,0,0
21,0,0,None,None,None,0,None,None,No,0,0,0,0,0,0,0
21,0,0,None,None,None,0,None,None,No,0,0,0,0,0,0,0
21,0,0,None,None,None,0,None,None,No,0,0,0,0,0,0,0
21,0,0,None,None,None,0,None,None,No,0,0,0,0,0,0,0
21,0,0,None,None,None,0,None,None,No,0,0,0,0,0,0,0
21,0,0,None,None,None,0,None,None,No,0,0,0,0,0,0,0
21,0,0,None,None,None,0,None,None,No,0,0,0,0,0,0,0
21,0,0,None,None,None,0,None,None,No,0,0,0,0,0,0,0
21,0,0,None,None,None,0,None,None,No,0,0,0,0,0,0,0
21,0,0,None,None,None,0,None,None,No,0,0,0,0,0,0,0
21,0,0,None,None,None,0,None,None,No,0,0,0,0,0,0,0
21,0,0,None,None,None,0,None,None,No,0,0,0,0,0,0,0
21,0,0,None,None,None,0,None,None,No,0,0,0,0,0,0,0
