subject,block,trial,SNR,stim,correct_resp,RT,response,status,IsDouble,time_stim,time_resp,volume_stim,volume_stim_global,volume_resp,volume_resp_global,ISI
24,1,1,catch,catch,None,10.6824252587548,b,FA,No,19.067338680248,29.7506602865575,20,20,30,30,14
24,1,2,SNR11,a,b,0,None,None,No,32.0742628510695,0,33,33,0,0,13
24,1,3,SNR07,a,b,1.11823149258998,b,HIT,No,46.0779217965268,47.1965983268179,47,47,48,48,14
24,1,4,SNR07,a,b,0.926269141467856,b,HIT,No,59.581590720408,60.5083128823162,60,60,61,61,13.5
24,1,5,SNR09,a,b,1.2434125297068,b,HIT,No,73.5892458820471,74.8333010222468,74,74,75,75,14
24,1,6,SNR09,a,b,0,None,None,No,86.5963405413666,0,87,87,0,0,13
24,1,7,SNR11,a,b,0,None,None,No,101.599405057863,0,102,102,0,0,15
24,1,8,catch,catch,None,0,None,None,No,116.603469697523,0,117,117,0,0,15
24,1,9,SNR07,a,b,1.18867944969224,b,HIT,No,131.105958886613,132.295454001177,132,132,133,133,14.5
24,1,10,SNR11,a,b,0,None,None,No,145.608931316513,0,146,146,0,0,14.5
24,1,11,SNR09,a,b,1.17718801175124,b,HIT,No,160.111903746413,161.289321547009,161,161,162,162,14.5
24,1,12,SNR09,a,b,1.23877199244635,b,HIT,No,173.614909532759,174.853964627343,174,174,175,175,13.5
24,1,13,SNR07,a,b,1.14164372579489,b,HIT,No,188.118002844136,189.259829602733,189,189,190,190,14.5
24,1,14,SNR07,a,b,1.09962372789323,b,HIT,No,202.120783688299,203.220583606647,203,203,204,204,14
24,1,15,SNR11,a,b,0,None,None,No,217.123740152721,0,218,218,0,0,15
24,1,16,SNR11,a,b,0,None,None,No,230.126616219557,0,231,231,0,0,13
24,1,17,SNR11,a,b,0,None,None,No,244.129761988934,0,245,245,0,0,14
24,1,18,catch,catch,None,0,None,None,No,257.132954514353,0,258,258,0,0,13
24,1,19,SNR11,a,b,0,None,None,No,271.635916680731,0,272,272,0,0,14.5
24,1,20,SNR11,a,b,0,None,None,No,285.639006570935,0,286,286,0,0,14
24,1,21,SNR09,a,b,1.0843507524296,b,HIT,No,300.642214776734,301.726767948619,301,301,302,302,15
24,1,22,SNR09,a,b,0,None,None,No,314.645220277982,0,315,315,0,0,14
24,1,23,SNR07,a,b,0.900816178047535,b,HIT,No,327.648165053393,328.549199331275,328,328,329,329,13
24,1,24,SNR11,a,b,0,None,None,No,341.151004627708,0,342,342,0,0,13.5
24,1,25,SNR07,a,b,1.09854947929671,b,HIT,No,354.154019537184,355.252760032022,355,355,356,356,13
24,1,26,SNR07,a,b,0.802190862728821,b,HIT,No,367.657060960757,368.459558873841,368,368,369,369,13.5
24,1,27,SNR09,a,b,1.22671634591279,b,HIT,No,382.16034072611,383.387248372662,383,383,384,384,14.5
24,1,28,SNR11,a,b,0,None,None,No,395.663368464988,0,396,396,0,0,13.5
24,1,29,SNR09,a,b,1.19445980804812,b,HIT,No,409.166293568649,410.360892504436,410,410,411,411,13.5
24,1,30,SNR07,a,b,1.12811954037716,b,HIT,No,424.169312754592,425.297577409761,425,425,426,426,15
24,1,31,SNR09,a,b,1.46705209991524,b,HIT,No,439.172279482536,440.639494658407,440,440,441,441,15
24,1,32,SNR07,a,b,1.21956409683298,b,HIT,No,454.175133026644,455.394984502082,455,455,456,456,15
24,1,33,SNR09,a,b,0,None,None,No,467.177904462579,0,468,468,0,0,13
24,2,1,SNR07,a,b,0.989120952181111,b,HIT,No,19.508932399885,20.4980869936092,20,506,21,507,14.5
24,2,2,SNR07,a,b,0.891874369934158,b,HIT,No,32.5116756111357,33.4037315883826,33,519,34,520,13
24,2,3,SNR07,a,b,0.88761215748309,b,HIT,No,45.5146677127856,46.4024871363862,46,532,47,533,13
24,2,4,SNR11,a,b,1.45230113856633,b,HIT,No,58.51772339125,59.9703005045091,59,545,60,546,13
24,2,5,SNR11,a,b,0,None,None,No,71.5206242615966,0,72,558,0,0,13
24,2,6,SNR09,a,b,1.24618196995834,b,HIT,No,84.5235667562254,85.7699212103657,85,571,86,572,13
24,2,7,SNR11,a,b,0,None,None,No,99.0266529401568,0,100,586,0,0,14.5
24,2,8,SNR11,a,b,0,None,None,No,114.029847461261,0,115,601,0,0,15
24,2,9,SNR09,a,b,0.957159490564663,b,HIT,No,128.532753178271,129.490093135757,129,615,130,616,14.5
24,2,10,SNR07,a,b,0.962972635170445,b,HIT,No,142.53575183717,143.498839366764,143,629,144,630,14
24,2,11,SNR11,a,b,0,None,None,No,156.538723126679,0,157,643,0,0,14
24,2,12,SNR07,a,b,1.02450330257307,b,HIT,No,171.541713517742,172.566396431944,172,658,173,659,15
24,2,13,SNR07,a,b,1.09832111594005,b,HIT,No,186.044685662545,187.143274485341,187,673,188,674,14.5
24,2,14,SNR09,a,b,1.17968062201544,b,HIT,No,199.547871915812,200.727784322357,200,686,201,687,13.5
24,2,15,SNR09,a,b,1.20544576755128,b,HIT,No,213.050854609234,214.256493673109,214,700,215,701,13.5
24,2,16,SNR11,a,b,0,None,None,No,226.553627755756,0,227,713,0,0,13.5
24,2,17,SNR11,a,b,1.26812309839806,b,HIT,No,241.556675166383,242.825096192005,242,728,243,729,15
24,2,18,SNR11,a,b,1.17770460900465,b,HIT,No,255.559838611824,256.737741648915,256,742,257,743,14
24,2,19,SNR09,a,b,1.30657509704724,b,HIT,No,269.562871482463,270.869607944878,270,756,271,757,14
24,2,20,SNR09,a,b,1.06350354433744,b,HIT,No,284.565809130429,285.629603189446,285,771,286,772,15
24,2,21,SNR09,a,b,1.09520870301094,b,HIT,No,299.568652125917,300.664062107991,300,786,301,787,15
24,2,22,SNR07,a,b,0.792782919676029,b,HIT,No,313.07171721261,313.864795208532,314,800,314,800,13.5
24,2,23,catch,catch,None,0,None,None,No,326.074762627553,0,327,813,0,0,13
24,2,24,SNR09,a,b,0,None,None,No,340.077518953303,0,341,827,0,0,14
24,2,25,SNR11,a,b,0,None,None,No,354.580569214909,0,355,841,0,0,14.5
24,2,26,SNR09,a,b,0,None,None,No,369.083484910342,0,370,856,0,0,14.5
24,2,27,SNR07,a,b,1.16456045898485,b,HIT,No,384.086716494163,385.251493057298,385,871,386,872,15
24,2,28,SNR09,a,b,0,None,None,No,397.089660129184,0,398,884,0,0,13
24,2,29,SNR07,a,b,1.03715337806716,b,HIT,No,410.592627997518,411.630009738942,411,897,412,898,13.5
24,2,30,catch,catch,None,0,None,None,No,424.595559088234,0,425,911,0,0,14
24,2,31,SNR07,a,b,1.22582570031409,b,HIT,No,438.598908417456,439.824873245508,439,925,440,926,14
24,2,32,catch,catch,None,0,None,None,No,453.601627395392,0,454,940,0,0,15
24,2,33,SNR11,a,b,0,None,None,No,467.104949925418,0,468,954,0,0,13.5
24,3,1,catch,catch,None,0,None,None,No,20.007072991885,0,21,993,0,0,15
24,3,2,SNR11,a,b,0.951918822385778,b,HIT,No,34.0106201789958,34.9627867513901,35,1007,35,1007,14
24,3,3,SNR11,a,b,0,None,None,No,48.0134169886371,0,49,1021,0,0,14
24,3,4,SNR11,a,b,1.08966355035773,b,HIT,No,63.016311016636,64.1061464809806,64,1036,65,1037,15
24,3,5,SNR07,a,b,0.977825376443434,b,HIT,No,76.0215816200855,76.9997322931444,77,1049,78,1050,13
24,3,6,SNR07,a,b,1.2933964501899,b,HIT,No,89.5241546279359,90.8176790870483,90,1062,91,1063,13.5
24,3,7,SNR09,a,b,1.17518491444753,b,HIT,No,102.527005891261,103.702372127925,103,1075,104,1076,13
24,3,8,SNR07,a,b,1.00610936124394,b,HIT,No,117.030037621509,118.036357099848,118,1090,119,1091,14.5
24,3,9,SNR09,a,b,0.954694534788359,b,HIT,No,130.032960444388,130.988058677693,131,1103,131,1103,13
24,3,10,SNR07,a,b,1.22058360664778,b,HIT,No,144.035836511224,145.256622537325,145,1117,146,1118,14
24,3,11,SNR07,a,b,1.10161770206469,b,HIT,No,157.538671523973,158.640493070983,158,1130,159,1131,13.5
24,3,12,SNR09,a,b,0,None,None,No,172.54153305082,0,173,1145,0,0,15
24,3,13,SNR07,a,b,1.11318383563776,b,HIT,No,187.544519165416,188.657912833051,188,1160,189,1161,15
24,3,14,SNR09,a,b,0,None,None,No,201.547859656605,0,202,1174,0,0,14
24,3,15,SNR11,a,b,0,None,None,No,215.050826669647,0,216,1188,0,0,13.5
24,3,16,catch,catch,None,0,None,None,No,229.054190538858,0,230,1202,0,0,14
24,3,17,SNR09,a,b,0,None,None,No,242.556972523412,0,243,1215,0,0,13.5
24,3,18,SNR11,a,b,0,None,None,No,257.06011287593,0,258,1230,0,0,14.5
24,3,19,SNR07,a,b,1.17599886873177,b,HIT,No,270.063180528503,271.239428002536,271,1243,272,1244,13
24,3,20,SNR09,a,b,1.10683356673326,b,HIT,No,284.566078262774,285.673186663808,285,1257,286,1258,14.5
24,3,21,SNR11,a,b,0,None,None,No,298.069099159304,0,299,1271,0,0,13.5
24,3,22,catch,catch,None,0,None,None,No,311.072029679824,0,312,1284,0,0,13
24,3,23,SNR09,a,b,0.990423849232684,b,HIT,No,325.574963051322,326.565531160052,326,1298,327,1299,14.5
24,3,24,SNR09,a,b,1.02196507665758,b,HIT,No,339.078001053722,340.100126070257,340,1312,341,1313,13.5
24,3,25,SNR11,a,b,0,None,None,No,352.0809894491,0,353,1325,0,0,13
24,3,26,SNR11,a,b,0,None,None,No,365.084096445172,0,366,1338,0,0,13
24,3,27,SNR11,a,b,1.49922339353179,b,HIT,No,379.58701157041,381.086529184894,380,1352,382,1354,14.5
24,3,28,SNR07,a,b,1.17128905269965,b,HIT,No,394.089815222399,395.261293580053,395,1367,396,1368,14.5
24,3,29,SNR09,a,b,1.58406907578137,b,HIT,No,408.092636265355,409.676995000525,409,1381,410,1382,14
24,3,30,SNR07,a,b,1.13001857697418,b,HIT,No,422.095454172236,423.225771531728,423,1395,424,1396,14
24,3,31,SNR09,a,b,1.27793673565429,b,HIT,No,437.09826495167,438.376522992569,438,1410,439,1411,15
24,3,32,SNR07,a,b,1.10798678742685,b,HIT,No,452.101102815398,453.209274631311,453,1425,454,1426,15
24,3,33,SNR11,a,b,1.27770523621984,b,HIT,No,467.103993992419,468.381908205343,468,1440,469,1441,15
24,4,1,SNR11,a,b,0,None,None,No,18.5071568106449,0,19,1478,0,0,13.5
24,4,2,SNR09,a,b,1.21094901082506,b,HIT,No,33.5100402900243,34.7212818112151,34,1493,35,1494,15
24,4,3,SNR09,a,b,1.25686629596385,b,HIT,No,47.0130349575546,48.2700594828097,48,1507,49,1508,13.5
24,4,4,SNR11,a,b,0,None,None,No,61.5161205712904,0,62,1521,0,0,14.5
24,4,5,SNR11,a,b,0,None,None,No,74.5190331306478,0,75,1534,0,0,13
24,4,6,SNR09,a,b,1.11098943769684,b,HIT,No,88.5221307184921,89.6332803811644,89,1548,90,1549,14
24,4,7,SNR07,a,b,1.0286548970671,b,HIT,No,101.525077774686,102.554007220958,102,1561,103,1562,13
24,4,8,SNR07,a,b,1.03552803537968,b,HIT,No,115.528146282552,116.563800901365,116,1575,117,1576,14
24,4,9,SNR09,a,b,1.3041035840215,b,HIT,No,129.031142945768,130.335488862939,130,1589,131,1590,13.5
24,4,10,SNR11,a,b,1.22312810471703,b,HIT,No,144.034006468299,145.257312474056,145,1604,146,1605,15
24,4,11,SNR07,a,b,1.07253344767742,b,HIT,No,158.537171054132,159.610020390196,159,1618,160,1619,14.5
24,4,12,SNR07,a,b,0.99451728377062,b,HIT,No,172.04013065463,173.034816431214,173,1632,174,1633,13.5
24,4,13,SNR07,a,b,0.824332700036393,b,HIT,No,185.04302582302,185.867514186468,186,1645,186,1645,13
24,4,14,SNR11,a,b,0,None,None,No,200.045950926682,0,201,1660,0,0,15
24,4,15,catch,catch,None,0,None,None,No,214.048812738627,0,215,1674,0,0,14
24,4,16,SNR11,a,b,0,None,None,No,227.051843043385,0,228,1687,0,0,13
24,4,17,SNR09,a,b,1.10459782960788,b,HIT,No,240.054719680417,241.159512231837,241,1700,242,1701,13
24,4,18,SNR07,a,b,1.11944686460811,b,HIT,No,254.057847203532,255.177485083682,255,1714,256,1715,14
24,4,19,SNR09,a,b,0,None,None,No,268.560798251096,0,269,1728,0,0,14.5
24,4,20,SNR07,a,b,1.065885821743,b,HIT,No,283.063643527367,284.129742602282,284,1743,285,1744,14.5
24,4,21,SNR07,a,b,1.06364096148718,b,HIT,No,298.06677931832,299.130585066348,299,1758,300,1759,15
24,4,22,SNR07,a,b,0.920582865393953,b,HIT,No,313.069820456795,313.990529620523,314,1773,315,1774,15
24,4,23,SNR09,a,b,1.20026953148226,b,HIT,No,326.072636938186,327.273069260525,327,1786,328,1787,13
24,4,24,SNR11,a,b,0,None,None,No,340.075463398001,0,341,1800,0,0,14
24,4,25,SNR07,a,b,1.05781641296744,b,HIT,No,353.578452933771,354.636476612855,354,1813,355,1814,13.5
24,4,26,catch,catch,None,0,None,None,No,366.581238909695,0,367,1826,0,0,13
24,4,27,SNR11,a,b,0,None,None,No,380.584223883899,0,381,1840,0,0,14
24,4,28,SNR09,a,b,1.34225223858812,b,HIT,No,395.087309497635,396.429754177253,396,1855,397,1856,14.5
24,4,29,SNR11,a,b,0,None,None,No,409.590191836623,0,410,1869,0,0,14.5
24,4,30,catch,catch,None,0,None,None,No,424.593000050177,0,425,1884,0,0,15
24,4,31,SNR09,a,b,0,None,None,No,438.596003270642,0,439,1898,0,0,14
24,4,32,SNR11,a,b,0,None,None,No,452.099062655378,0,453,1912,0,0,13.5
24,4,33,SNR09,a,b,0,None,None,No,467.101984337866,0,468,1927,0,0,15
24,5,1,SNR09,a,b,0.874552681516434,b,HIT,No,20.0079131751687,20.8826688463346,21,1968,21,1968,15
24,5,2,SNR09,a,b,0.915565999006503,b,HIT,No,33.5108454062758,34.4265932976923,34,1981,35,1982,13.5
24,5,3,catch,catch,None,0,None,None,No,48.5134323839196,0,49,1996,0,0,15
24,5,4,SNR11,a,b,0,None,None,No,63.0165028874708,0,64,2011,0,0,14.5
24,5,5,SNR09,a,b,0.949969893670641,b,HIT,No,77.0193909284154,77.9695065070727,78,2025,78,2025,14
24,5,6,SNR07,a,b,1.13343575947874,b,HIT,No,90.5224426155102,91.6561070234419,91,2038,92,2039,13.5
24,5,7,SNR07,a,b,1.03236230915536,b,HIT,No,105.025303001966,106.057974927357,106,2053,107,2054,14.5
24,5,8,SNR07,a,b,1.09528140295515,b,HIT,No,118.528307362822,119.623754977808,119,2066,120,2067,13.5
24,5,9,SNR07,a,b,1.07285988468357,b,HIT,No,131.531288915853,132.604470390881,132,2079,133,2080,13
24,5,10,SNR09,a,b,1.3528940850174,b,HIT,No,146.034182373656,147.387267474216,147,2094,148,2095,14.5
24,5,11,SNR09,a,b,0,None,None,No,160.036999140145,0,161,2108,0,0,14
24,5,12,SNR09,a,b,1.13062212906516,b,HIT,No,174.539908848524,175.670708593533,175,2122,176,2123,14.5
24,5,13,catch,catch,None,0,None,None,No,187.54269197347,0,188,2135,0,0,13
24,5,14,SNR07,a,b,1.27315593026287,b,HIT,No,200.545920136117,201.819226027835,201,2148,202,2149,13
24,5,15,SNR11,a,b,0,None,None,No,214.54871808615,0,215,2162,0,0,14
24,5,16,SNR09,a,b,0,None,None,No,227.551625798844,0,228,2175,0,0,13
24,5,17,SNR11,a,b,0,None,None,No,242.054565727592,0,243,2190,0,0,14.5
24,5,18,SNR11,a,b,0,None,None,No,257.057538157493,0,258,2205,0,0,15
24,5,19,SNR09,a,b,1.15435566751512,b,HIT,No,270.560382863568,271.715013650484,271,2218,272,2219,13.5
24,5,20,catch,catch,None,0,None,None,No,284.563126359917,0,285,2232,0,0,14
24,5,21,SNR09,a,b,0,None,None,No,299.566091092176,0,300,2247,0,0,15
24,5,22,SNR11,a,b,0,None,None,No,313.069121111836,0,314,2261,0,0,13.5
24,5,23,SNR11,a,b,0,None,None,No,326.572064461758,0,327,2274,0,0,13.5
24,5,24,SNR09,a,b,0,None,None,No,339.575012658343,0,340,2287,0,0,13
24,5,25,SNR07,a,b,1.06857714518992,b,HIT,No,354.077896137723,355.146646907487,355,2302,356,2303,14.5
24,5,26,SNR07,a,b,1.01023843301118,b,HIT,No,368.080771634363,369.091232443676,369,2316,370,2317,14
24,5,27,SNR07,a,b,0.918129598629093,b,HIT,No,383.08358469458,384.002004237694,384,2331,385,2332,15
24,5,28,SNR11,a,b,0,None,None,No,398.086578221719,0,399,2346,0,0,15
24,5,29,SNR07,a,b,1.04392160037969,b,HIT,No,413.089486504609,414.133617081693,414,2361,415,2362,15
24,5,30,SNR07,a,b,0.95256485405298,b,HIT,No,427.092405906315,428.045148661409,428,2375,429,2376,14
24,5,31,SNR11,a,b,0,None,None,No,441.095317325281,0,442,2389,0,0,14
24,5,32,SNR11,a,b,0,None,None,No,454.098199379171,0,455,2402,0,0,13
24,5,33,SNR11,a,b,0,None,None,No,467.101014720171,0,468,2415,0,0,13
24,6,1,SNR07,a,b,1.06709862788193,b,HIT,No,20.0070148319291,21.0743039051559,21,2452,22,2453,15
24,6,2,SNR07,a,b,0.992361088936377,b,HIT,No,35.0099923935901,36.0024641004822,36,2467,37,2468,15
24,6,3,SNR07,a,b,1.1297579975635,b,HIT,No,49.0130646077282,50.1429805494861,50,2481,51,2482,14
24,6,4,SNR11,a,b,0,None,None,No,63.0160381780196,0,64,2495,0,0,14
24,6,5,SNR07,a,b,1.08713074129992,b,HIT,No,76.0190699082669,77.1063737039453,77,2508,78,2509,13
24,6,6,SNR09,a,b,1.21579225263667,b,HIT,No,89.0220594440364,90.2381336584209,90,2521,91,2522,13
24,6,7,SNR11,a,b,1.2708392253553,b,HIT,No,102.025033299426,103.296024767018,103,2534,104,2535,13
24,6,8,SNR09,a,b,1.15649675216446,b,HIT,No,117.028055051249,118.184729989554,118,2549,119,2550,15
24,6,9,SNR07,a,b,1.03445663776074,b,HIT,No,131.030998971367,132.065714763049,132,2563,133,2564,14
24,6,10,SNR09,a,b,1.24411016407976,b,HIT,No,145.533993923995,146.778271440497,146,2577,147,2578,14.5
24,6,11,catch,catch,None,0,None,None,No,158.536759943072,0,159,2590,0,0,13
24,6,12,SNR07,a,b,1.17760111849566,b,HIT,No,173.039896589318,174.217700697463,174,2605,175,2606,14.5
24,6,13,SNR11,a,b,0,None,None,No,186.042868163924,0,187,2618,0,0,13
24,6,14,SNR11,a,b,0,None,None,No,201.045773595836,0,202,2633,0,0,15
24,6,15,SNR11,a,b,1.7458649411783,b,HIT,No,216.048720081834,217.794833913412,217,2648,218,2649,15
24,6,16,SNR09,a,b,1.25686173439863,b,HIT,No,230.05163292629,231.308667144871,231,2662,232,2663,14
24,6,17,SNR11,a,b,0,None,None,No,244.554503291169,0,245,2676,0,0,14.5
24,6,18,catch,catch,None,0,None,None,No,258.557518770841,0,259,2690,0,0,14
24,6,19,catch,catch,None,0,None,None,No,273.560288781287,0,274,2705,0,0,15
24,6,20,SNR09,a,b,1.18617629080836,b,HIT,No,287.563163422634,288.74956921719,288,2719,289,2720,14
24,6,21,SNR07,a,b,1.02919458724682,b,HIT,No,301.066047187111,302.09542737304,302,2733,303,2734,13.5
24,6,22,SNR11,a,b,0,None,None,No,314.568991392327,0,315,2746,0,0,13.5
24,6,23,SNR09,a,b,1.01007193588339,b,HIT,No,328.071918206575,329.082152933314,329,2760,330,2761,13.5
24,6,24,SNR09,a,b,0,None,None,No,341.074914014497,0,342,2773,0,0,13
24,6,25,SNR09,a,b,1.15123555694299,b,HIT,No,356.077873900093,357.229411660729,357,2788,358,2789,15
24,6,26,SNR09,a,b,0,None,None,No,369.58088595859,0,370,2801,0,0,13.5
24,6,27,SNR09,a,b,1.07971335124421,b,HIT,No,384.083972997815,385.164012500969,385,2816,386,2817,14.5
24,6,28,SNR11,a,b,0,None,None,No,398.586842507401,0,399,2830,0,0,14.5
24,6,29,SNR11,a,b,1.19549870451556,b,HIT,No,412.089623066467,413.28542711075,413,2844,414,2845,13.5
24,6,30,SNR07,a,b,0.957523275386848,b,HIT,No,426.592368843598,427.550115635677,427,2858,428,2859,14.5
24,6,31,SNR11,a,b,0,None,None,No,440.595171925391,0,441,2872,0,0,14
24,6,32,SNR07,a,b,1.35238233442578,b,HIT,No,453.598018342054,454.950674655488,454,2885,455,2886,13
24,6,33,SNR07,a,b,0,None,None,No,467.100856775977,0,468,2899,0,0,13.5
24,0,0,None,None,None,0,None,None,No,0,0,0,0,0,0,0
24,0,0,None,None,None,0,None,None,No,0,0,0,0,0,0,0
24,0,0,None,None,None,0,None,None,No,0,0,0,0,0,0,0
24,0,0,None,None,None,0,None,None,No,0,0,0,0,0,0,0
24,0,0,None,None,None,0,None,None,No,0,0,0,0,0,0,0
24,0,0,None,None,None,0,None,None,No,0,0,0,0,0,0,0
24,0,0,None,None,None,0,None,None,No,0,0,0,0,0,0,0
24,0,0,None,None,None,0,None,None,No,0,0,0,0,0,0,0
24,0,0,None,None,None,0,None,None,No,0,0,0,0,0,0,0
24,0,0,None,None,None,0,None,None,No,0,0,0,0,0,0,0
24,0,0,None,None,None,0,None,None,No,0,0,0,0,0,0,0
24,0,0,None,None,None,0,None,None,No,0,0,0,0,0,0,0
24,0,0,None,None,None,0,None,None,No,0,0,0,0,0,0,0
24,0,0,None,None,None,0,None,None,No,0,0,0,0,0,0,0
24,0,0,None,None,None,0,None,None,No,0,0,0,0,0,0,0
24,0,0,None,None,None,0,None,None,No,0,0,0,0,0,0,0
24,0,0,None,None,None,0,None,None,No,0,0,0,0,0,0,0
24,0,0,None,None,None,0,None,None,No,0,0,0,0,0,0,0
24,0,0,None,None,None,0,None,None,No,0,0,0,0,0,0,0
24,0,0,None,None,None,0,None,None,No,0,0,0,0,0,0,0
24,0,0,None,None,None,0,None,None,No,0,0,0,0,0,0,0
24,0,0,None,None,None,0,None,None,No,0,0,0,0,0,0,0
