subject,block,trial,SNR,stim,correct_resp,RT,response,status,IsDouble,time_stim,time_resp,volume_stim,volume_stim_global,volume_resp,volume_resp_global,ISI
22,1,1,catch,catch,None,0,None,None,No,19.0649302738243,0,20,20,0,0,14
22,1,2,SNR11,a,b,1.23549982352597,b,HIT,No,32.0722233404361,33.3086662648699,33,33,34,34,13
22,1,3,SNR07,a,b,1.32015481908093,b,HIT,No,46.0771917260286,47.3976196680444,47,47,48,48,14
22,1,4,SNR07,a,b,0.970205081683162,b,HIT,No,59.5806271449986,60.5511751983848,60,60,61,61,13.5
22,1,5,SNR09,a,b,1.08366713441683,b,HIT,No,73.5879569891247,74.6723459891697,74,74,75,75,14
22,1,5,SNR09,a,b,6.26862752588931,b,FA,No,0,79.8593362713531,0,0,80,80,14
22,1,6,SNR09,a,b,1.16550508641558,b,HIT,No,86.5923107055638,87.7576213558187,87,87,88,88,13
22,1,7,SNR11,a,b,0,None,None,No,101.595242928311,0,102,102,0,0,15
22,1,8,catch,catch,None,0,None,None,No,116.599068645088,0,117,117,0,0,15
22,1,9,SNR07,a,b,0.980708625724219,b,HIT,No,131.101538440485,132.08250251313,132,132,133,133,14.5
22,1,10,SNR11,a,b,0,None,None,No,145.604547069231,0,146,146,0,0,14.5
22,1,11,SNR09,a,b,1.07224557800328,b,HIT,No,160.107453348151,161.179919591239,161,161,162,162,14.5
22,1,12,SNR09,a,b,1.0750520729689,b,HIT,No,173.610386711286,174.685665721475,174,174,175,175,13.5
22,1,13,SNR07,a,b,0.984272623445577,b,HIT,No,188.113332903787,189.09773068482,189,189,190,190,14.5
22,1,14,SNR07,a,b,1.05656752323011,b,HIT,No,202.116329273362,203.173061297568,203,203,204,204,14
22,1,15,SNR11,a,b,0.975218797701018,b,HIT,No,217.119335906429,218.094787343289,218,218,219,219,15
22,1,16,SNR11,a,b,1.49802456281941,b,HIT,No,230.122239619475,231.620481426215,231,231,232,232,13
22,1,17,SNR11,a,b,0,None,None,No,244.125128792574,0,245,245,0,0,14
22,1,18,catch,catch,None,0,None,None,No,257.127834648296,0,258,258,0,0,13
22,1,19,SNR11,a,b,0,None,None,No,271.630868365579,0,272,272,0,0,14.5
22,1,20,SNR11,a,b,0,None,None,No,285.6338698669,0,286,286,0,0,14
22,1,21,SNR09,a,b,0.958023741739453,b,HIT,No,300.636818625274,301.595120906791,301,301,302,302,15
22,1,22,SNR09,a,b,1.02207449128764,b,HIT,No,314.639608584613,315.661830185957,315,315,316,316,14
22,1,23,SNR07,a,b,0.846912598950439,b,HIT,No,327.642413939191,328.489521829593,328,328,329,329,13
22,1,23,SNR07,a,b,7.11369298131103,b,FA,No,0,334.758396819686,0,0,335,335,13
22,1,24,SNR11,a,b,0,None,None,No,341.145251794828,0,342,342,0,0,13.5
22,1,25,SNR07,a,b,0.979634095094298,b,HIT,No,354.148129849144,355.128014544509,355,355,356,356,13
22,1,26,SNR07,a,b,0.961632214593919,b,HIT,No,367.650988231766,368.612783521849,368,368,369,369,13.5
22,1,27,SNR09,a,b,0,None,None,No,382.153747400628,0,383,383,0,0,14.5
22,1,28,SNR11,a,b,1.01596942391734,b,HIT,No,395.656868642693,396.673046187426,396,396,397,397,13.5
22,1,29,SNR09,a,b,0,None,None,No,409.159608424959,0,410,410,0,0,13.5
22,1,30,SNR07,a,b,0.954917894912796,b,HIT,No,424.162398099201,425.117549203467,425,425,426,426,15
22,1,31,SNR09,a,b,0,None,None,No,439.165259047696,0,440,440,0,0,15
22,1,32,SNR07,a,b,1.04361955742752,b,HIT,No,454.168021637723,455.212008970292,455,455,456,456,15
22,1,33,SNR09,a,b,1.15455451026355,b,HIT,No,467.170793065756,468.325580785374,468,468,469,469,13
22,2,1,SNR07,a,b,0.966105101582798,b,HIT,No,19.5088579640994,20.4750531563375,20,505,21,506,14.5
22,2,2,SNR07,a,b,0.862844104964097,b,HIT,No,32.5115595433658,33.374650257243,33,518,34,519,13
22,2,3,SNR07,a,b,0.950893750617979,b,HIT,No,45.514368889302,46.4653943547371,46,531,47,532,13
22,2,4,SNR11,a,b,6.84258853259962,b,FA,No,58.5172822956467,65.3600011175803,59,544,66,551,13
22,2,5,SNR11,a,b,0.923335418343413,b,HIT,No,71.5202755291543,72.4438213490905,72,557,73,558,13
22,2,6,SNR09,a,b,1.14328576584739,b,HIT,No,84.523100555426,85.666570779039,85,570,86,571,13
22,2,7,SNR11,a,b,0,None,None,No,99.0260986355827,0,100,585,0,0,14.5
22,2,8,SNR11,a,b,0,None,None,No,114.02906421468,0,115,600,0,0,15
22,2,9,SNR09,a,b,1.04635648872136,b,HIT,No,128.532057733285,129.578657979951,129,614,130,615,14.5
22,2,10,SNR07,a,b,1.03134299508019,b,HIT,No,142.535002500301,143.566493175633,143,628,144,629,14
22,2,11,SNR11,a,b,1.30795608821973,b,HIT,No,156.537950403384,157.846114612419,157,642,158,643,14
22,2,12,SNR07,a,b,1.01073646829718,b,HIT,No,171.540938505145,172.551830066217,172,657,173,658,15
22,2,12,SNR07,a,b,7.70770685641219,b,FA,No,0,179.251018794165,0,0,180,665,15
22,2,13,SNR07,a,b,0.974416819810358,b,HIT,No,186.043850200908,187.018482268962,187,672,188,673,14.5
22,2,14,SNR09,a,b,1.03117307726279,b,HIT,No,199.546824332916,200.578229194048,200,685,201,686,13.5
22,2,15,SNR09,a,b,0.943351509216882,b,HIT,No,213.049762257603,213.993654310752,214,699,215,700,13.5
22,2,16,SNR11,a,b,1.00874449548974,b,HIT,No,226.552697616418,227.561894560862,227,712,228,713,13.5
22,2,17,SNR11,a,b,0,None,None,No,241.555645804598,0,242,727,0,0,15
22,2,18,SNR11,a,b,0,None,None,No,255.558594562972,0,256,741,0,0,14
22,2,19,SNR09,a,b,0,None,None,No,269.561620867733,0,270,755,0,0,14
22,2,20,SNR09,a,b,0,None,None,No,284.564545392861,0,285,770,0,0,15
22,2,21,SNR09,a,b,1.00764345083735,b,HIT,No,299.567411758199,300.575202033996,300,785,301,786,15
22,2,22,SNR07,a,b,0.797345062605018,b,HIT,No,313.070400715251,313.867911989413,314,799,314,799,13.5
22,2,23,catch,catch,None,9.26181085638018,b,FA,No,326.073622311464,335.335490472343,327,812,336,821,13
22,2,24,SNR09,a,b,1.17779989497103,b,HIT,No,340.076453039676,341.254393202375,341,826,342,827,14
22,2,25,SNR11,a,b,0,None,None,No,354.579535508548,0,355,840,0,0,14.5
22,2,26,SNR09,a,b,1.00113639668234,b,HIT,No,369.082340578028,370.083756654877,370,855,371,856,14.5
22,2,27,SNR07,a,b,0.947128759502448,b,HIT,No,384.085230321321,385.032495072098,385,870,386,871,15
22,2,28,SNR09,a,b,1.12865544258784,b,HIT,No,397.088280574231,398.217235083582,398,883,399,884,13
22,2,29,SNR07,a,b,0.848539362488737,b,HIT,No,410.591207095038,411.439930915293,411,896,412,897,13.5
22,2,30,catch,catch,None,0,None,None,No,424.593971965841,0,425,910,0,0,14
22,2,31,SNR07,a,b,0.937665534451298,b,HIT,No,438.596885372186,439.534699727276,439,924,440,925,14
22,2,32,catch,catch,None,0,None,None,No,453.599584955773,0,454,939,0,0,15
22,2,33,SNR11,a,b,0,None,None,No,467.102433074902,0,468,953,0,0,13.5
22,3,1,catch,catch,None,0,None,None,No,20.0567984518092,0,21,992,0,0,15
22,3,2,SNR11,a,b,0,None,None,No,34.063091683207,0,35,1006,0,0,14
22,3,3,SNR11,a,b,1.04709061352332,b,HIT,No,48.0664290288056,49.1144889721626,49,1020,50,1021,14
22,3,4,SNR11,a,b,1.41595739282275,b,HIT,No,63.0713766023165,64.487549243381,64,1035,65,1036,15
22,3,5,SNR07,a,b,0.973863161418194,b,HIT,No,76.0782973322332,77.0523386792824,77,1048,78,1049,13
22,3,6,SNR07,a,b,1.05679446044996,b,HIT,No,89.5824272475195,90.6393981830197,90,1061,91,1062,13.5
22,3,6,SNR07,a,b,12.1234906251539,b,FA,No,0,101.708306415424,0,0,102,1073,13.5
22,3,7,SNR09,a,b,0.876222282156959,b,HIT,No,102.585290476791,103.461693510451,103,1074,104,1075,13
22,3,8,SNR07,a,b,1.32187366895232,b,HIT,No,117.088095831369,118.410220670788,118,1089,119,1090,14.5
22,3,9,SNR09,a,b,0,None,None,No,130.090955354378,0,131,1102,0,0,13
22,3,10,SNR07,a,b,0.783729684701029,b,HIT,No,144.093753866628,144.877697659183,145,1116,145,1116,14
22,3,11,SNR07,a,b,0.842803210647617,b,HIT,No,157.596466564678,158.439464496584,158,1129,159,1130,13.5
22,3,12,SNR09,a,b,0.843661352648269,b,HIT,No,172.599218035921,173.443079811768,173,1144,174,1145,15
22,3,13,SNR07,a,b,0,None,None,No,187.602113766251,0,188,1159,0,0,15
22,3,14,SNR09,a,b,0.913216185072088,b,HIT,No,201.605092459811,202.518542994625,202,1173,203,1174,14
22,3,15,SNR11,a,b,10.2729447499096,b,FA,No,215.107854194547,225.381058382736,216,1187,226,1197,13.5
22,3,16,catch,catch,None,0,None,None,No,229.11169644695,0,230,1201,0,0,14
22,3,17,SNR09,a,b,0,None,None,No,242.613970095604,0,243,1214,0,0,13.5
22,3,18,SNR11,a,b,1.01033590699808,b,HIT,No,257.116790275227,258.127359106483,258,1229,259,1230,14.5
22,3,19,SNR07,a,b,0.844362121099039,b,HIT,No,270.11959420432,270.964127953819,271,1242,271,1242,13
22,3,20,SNR09,a,b,8.73123961890451,b,FA,No,284.622352232794,293.353767471458,285,1256,294,1265,14.5
22,3,21,SNR11,a,b,0,None,None,No,298.125169846544,0,299,1270,0,0,13.5
22,3,22,catch,catch,None,0,None,None,No,311.127765084625,0,312,1283,0,0,13
22,3,23,SNR09,a,b,0.994211675406405,b,HIT,No,325.630586689733,326.624985958972,326,1297,327,1298,14.5
22,3,24,SNR09,a,b,0,None,None,No,339.133319914767,0,340,1311,0,0,13.5
22,3,25,SNR11,a,b,0,None,None,No,352.136072526399,0,353,1324,0,0,13
22,3,26,SNR11,a,b,0,None,None,No,365.138863341029,0,366,1337,0,0,13
22,3,27,SNR11,a,b,0,None,None,No,379.64158544728,0,380,1351,0,0,14.5
22,3,28,SNR07,a,b,0.825998737591362,b,HIT,No,394.144406482194,394.970572001535,395,1366,395,1366,14.5
22,3,29,SNR09,a,b,0,None,None,No,408.147192735272,0,409,1380,0,0,14
22,3,30,SNR07,a,b,0,None,None,No,422.149897165508,0,423,1394,0,0,14
22,3,31,SNR09,a,b,1.03778761299145,b,HIT,No,437.152679142132,438.190678012007,438,1409,439,1410,15
22,3,32,SNR07,a,b,0.983587250233541,b,HIT,No,452.155533533395,453.1393428742,453,1424,454,1425,15
22,3,33,SNR11,a,b,0,None,None,No,467.158219717423,0,468,1439,0,0,15
22,4,1,SNR11,a,b,0.853847298620167,b,HIT,No,18.5080856362995,19.3621513192294,19,1467,20,1468,13.5
22,4,2,SNR09,a,b,0.848628597852439,b,HIT,No,33.5108755956389,34.3597379730401,34,1482,35,1483,15
22,4,3,SNR09,a,b,1.24328012092701,b,HIT,No,47.0152261760109,48.2584638174832,48,1496,49,1497,13.5
22,4,4,SNR11,a,b,1.17622844025027,b,HIT,No,61.5178733017484,62.6942502775419,62,1510,63,1511,14.5
22,4,4,SNR11,a,b,12.6668781136159,b,FA,No,0,74.1869272757441,0,0,75,1523,14.5
22,4,5,SNR11,a,b,0,None,None,No,74.5205024663742,0,75,1523,0,0,13
22,4,6,SNR09,a,b,0.939958854800352,b,HIT,No,88.5234694709569,89.4636421485139,89,1537,90,1538,14
22,4,7,SNR07,a,b,0.949735116368174,b,HIT,No,101.5264116721,102.476345786181,102,1550,103,1551,13
22,4,8,SNR07,a,b,0.854665812135863,b,HIT,No,115.529204197312,116.384116048168,116,1564,117,1565,14
22,4,8,SNR07,a,b,10.1514255705788,b,FA,No,0,125.683139191773,0,0,126,1574,14
22,4,9,SNR09,a,b,0.944716838797831,b,HIT,No,129.031993586458,129.976886900306,130,1578,130,1578,13.5
22,4,10,SNR11,a,b,0,None,None,No,144.034822889185,0,145,1593,0,0,15
22,4,11,SNR07,a,b,0.838317494293733,b,HIT,No,158.537584338823,159.376144450672,159,1607,160,1608,14.5
22,4,12,SNR07,a,b,0,None,None,No,172.040289909447,0,173,1621,0,0,13.5
22,4,13,SNR07,a,b,1.01550186482018,b,HIT,No,185.043045657146,186.058778165446,186,1634,187,1635,13
22,4,14,SNR11,a,b,0.934378936120993,b,HIT,No,200.045797698583,200.980365654021,201,1649,201,1649,15
22,4,15,catch,catch,None,0,None,None,No,214.048332781195,0,215,1663,0,0,14
22,4,16,SNR11,a,b,0,None,None,No,227.05129009248,0,228,1676,0,0,13
22,4,17,SNR09,a,b,0,None,None,No,240.054192380041,0,241,1689,0,0,13
22,4,18,SNR07,a,b,0.886711286248101,b,HIT,No,254.057277699883,254.944386696461,255,1703,255,1703,14
22,4,19,SNR09,a,b,1.2854704870424,b,HIT,No,268.560243849175,269.845919891161,269,1717,270,1718,14.5
22,4,20,SNR07,a,b,0,None,None,No,283.063220547056,0,284,1732,0,0,14.5
22,4,21,SNR07,a,b,1.0299425985686,b,HIT,No,298.066116562483,299.096307480546,299,1747,300,1748,15
22,4,22,SNR07,a,b,0.902915915197809,b,HIT,No,313.068881433285,313.971999197167,314,1762,314,1762,15
22,4,23,SNR09,a,b,1.32589524737523,b,HIT,No,326.071797120406,327.397835486481,327,1775,328,1776,13
22,4,24,SNR11,a,b,0,None,None,No,340.074722785922,0,341,1789,0,0,14
22,4,25,SNR07,a,b,0.886427899820774,b,HIT,No,353.577477393233,354.464130804789,354,1802,355,1803,13.5
22,4,26,catch,catch,None,0,None,None,No,366.580247965975,0,367,1815,0,0,13
22,4,27,SNR11,a,b,0,None,None,No,380.582996586248,0,381,1829,0,0,14
22,4,28,SNR09,a,b,1.05434775791218,b,HIT,No,395.08584071402,396.140366087369,396,1844,397,1845,14.5
22,4,29,SNR11,a,b,1.0151557570498,b,HIT,No,409.588726180858,410.604137955022,410,1858,411,1859,14.5
22,4,30,catch,catch,None,10.449938390535,b,FA,No,424.591366749364,435.041509269359,425,1873,436,1884,15
22,4,31,SNR09,a,b,1.35926015045152,b,HIT,No,438.594141883659,439.953473308363,439,1887,440,1888,14
22,4,32,SNR11,a,b,0,None,None,No,452.097031626952,0,453,1901,0,0,13.5
22,4,33,SNR09,a,b,1.05882606174418,b,HIT,No,467.099936765483,468.158907941605,468,1916,469,1917,15
22,5,1,SNR09,a,b,1.3678800585476,b,HIT,No,20.0581814574045,21.4270468112185,21,1955,22,1956,15
22,5,2,SNR09,a,b,0.926709826551814,b,HIT,No,33.5651825846781,34.4920626141457,34,1968,35,1969,13.5
22,5,3,catch,catch,None,6.69899942353368,b,FA,No,48.5683089584893,55.2675002523109,49,1983,56,1990,15
22,5,4,SNR11,a,b,0,None,None,No,63.0717768785185,0,64,1998,0,0,14.5
22,5,5,SNR09,a,b,0,None,None,No,77.0787985327767,0,78,2012,0,0,14
22,5,6,SNR07,a,b,0.969167613664467,b,HIT,No,90.5829258821899,91.5522186534412,91,2025,92,2026,13.5
22,5,7,SNR07,a,b,0.812437243021122,b,HIT,No,105.085769724864,105.899060548333,106,2040,106,2040,14.5
22,5,8,SNR07,a,b,0.870348998654663,b,HIT,No,118.588640081561,119.459183231278,119,2053,120,2054,13.5
22,5,9,SNR07,a,b,1.04221345897349,b,HIT,No,131.591490766563,132.633870151997,132,2066,133,2067,13
22,5,10,SNR09,a,b,0.91981304478395,b,HIT,No,146.094468889929,147.014481502621,147,2081,148,2082,14.5
22,5,11,SNR09,a,b,0,None,None,No,160.097553069383,0,161,2095,0,0,14
22,5,12,SNR09,a,b,0.991413163155812,b,HIT,No,174.600441387191,175.592012494091,175,2109,176,2110,14.5
22,5,13,catch,catch,None,0,None,None,No,187.604206378304,0,188,2122,0,0,13
22,5,14,SNR07,a,b,0.969488917993658,b,HIT,No,200.60669156894,201.576404573184,201,2135,202,2136,13
22,5,15,SNR11,a,b,0,None,None,No,214.609523722637,0,215,2149,0,0,14
22,5,16,SNR09,a,b,0,None,None,No,227.612245258694,0,228,2162,0,0,13
22,5,17,SNR11,a,b,0,None,None,No,242.114961663005,0,243,2177,0,0,14.5
22,5,18,SNR11,a,b,0,None,None,No,257.117682058674,0,258,2192,0,0,15
22,5,19,SNR09,a,b,11.8139813284251,b,FA,No,270.620462039618,282.434722192921,271,2205,283,2217,13.5
22,5,20,catch,catch,None,0,None,None,No,284.623075523909,0,285,2219,0,0,14
22,5,21,SNR09,a,b,0,None,None,No,299.625870329897,0,300,2234,0,0,15
22,5,22,SNR11,a,b,0,None,None,No,313.128580462074,0,314,2248,0,0,13.5
22,5,23,SNR11,a,b,1.12530355704075,b,HIT,No,326.631422594166,327.756879248302,327,2261,328,2262,13.5
22,5,24,SNR09,a,b,1.03716268034441,b,HIT,No,339.634211128021,340.671521488617,340,2274,341,2275,13
22,5,25,SNR07,a,b,0.898900894007966,b,HIT,No,354.137041856232,355.036231838608,355,2289,356,2290,14.5
22,5,26,SNR07,a,b,0.854742503232046,b,HIT,No,368.139820696788,368.995076089541,369,2303,370,2304,14
22,5,27,SNR07,a,b,0.935794442775659,b,HIT,No,383.14261521768,384.07861036875,384,2318,385,2319,15
22,5,28,SNR11,a,b,0,None,None,No,398.145383509647,0,399,2333,0,0,15
22,5,29,SNR07,a,b,0.795560925516838,b,HIT,No,413.148179170926,413.943985850065,414,2348,414,2348,15
22,5,30,SNR07,a,b,0.994742526037953,b,HIT,No,427.150912966155,428.145836243699,428,2362,429,2363,14
22,5,31,SNR11,a,b,1.02633184493607,b,HIT,No,441.153809266679,442.180405681641,442,2376,443,2377,14
22,5,31,SNR11,a,b,3.13836100009758,b,FA,No,0,444.29456793263,0,0,445,2379,14
22,5,32,SNR11,a,b,0,None,None,No,454.156546768169,0,455,2389,0,0,13
22,5,33,SNR11,a,b,0,None,None,No,467.159283414367,0,468,2402,0,0,13
22,6,1,SNR07,a,b,0.938871779901092,b,HIT,No,20.009388244538,20.9482218214392,21,2440,21,2440,15
22,6,2,SNR07,a,b,0.882672031812035,b,HIT,No,35.0119826273286,35.894830278899,36,2455,36,2455,15
22,6,3,SNR07,a,b,0.888623431894302,b,HIT,No,49.0147343836687,49.9036218153951,50,2469,50,2469,14
22,6,4,SNR11,a,b,0,None,None,No,63.0175166453889,0,64,2483,0,0,14
22,6,5,SNR07,a,b,0.906379558771732,b,HIT,No,76.0203425269517,76.926948737847,77,2496,77,2496,13
22,6,6,SNR09,a,b,0.941354974856949,b,HIT,No,89.0231427497835,89.9647027093909,90,2509,90,2509,13
22,6,7,SNR11,a,b,0,None,None,No,102.0259826011,0,103,2522,0,0,13
22,6,8,SNR09,a,b,0.89517610157236,b,HIT,No,117.028748042096,117.924235469603,118,2537,118,2537,15
22,6,9,SNR07,a,b,0.90307271855454,b,HIT,No,131.031499228242,131.934842503859,132,2551,132,2551,14
22,6,10,SNR09,a,b,0,None,None,No,145.534316841992,0,146,2565,0,0,14.5
22,6,11,catch,catch,None,9.13278592806819,b,FA,No,158.537059190131,167.670102560798,159,2578,168,2587,13
22,6,12,SNR07,a,b,0.850968674110845,b,HIT,No,173.039912726103,173.891036492987,174,2593,174,2593,14.5
22,6,13,SNR11,a,b,0,None,None,No,186.042865760932,0,187,2606,0,0,13
22,6,14,SNR11,a,b,1.30472052225196,b,HIT,No,201.045654294787,202.350490566425,202,2621,203,2622,15
22,6,15,SNR11,a,b,4.08128771477095,b,FA,No,216.048476184991,220.129987986012,217,2636,221,2640,15
22,6,16,SNR09,a,b,0,None,None,No,230.051244476958,0,231,2650,0,0,14
22,6,17,SNR11,a,b,0,None,None,No,244.554178695385,0,245,2664,0,0,14.5
22,6,18,catch,catch,None,0,None,None,No,258.556783056571,0,259,2678,0,0,14
22,6,19,catch,catch,None,0,None,None,No,273.559401672607,0,274,2693,0,0,15
22,6,20,SNR09,a,b,2.22711455026729,b,HIT,No,287.562329618899,289.789607814851,288,2707,290,2709,14
22,6,21,SNR07,a,b,0.925291754025238,b,HIT,No,301.065235897819,301.990622018954,302,2721,303,2722,13.5
22,6,22,SNR11,a,b,0,None,None,No,314.568059498606,0,315,2734,0,0,13.5
22,6,23,SNR09,a,b,1.18669178561504,b,HIT,No,328.070862002214,329.257761908645,329,2748,330,2749,13.5
22,6,24,SNR09,a,b,0,None,None,No,341.073673628926,0,342,2761,0,0,13
22,6,25,SNR09,a,b,0,None,None,No,356.076518611988,0,357,2776,0,0,15
22,6,26,SNR09,a,b,1.08221969689657,b,HIT,No,369.579460528034,370.661900890016,370,2789,371,2790,13.5
22,6,26,SNR09,a,b,10.4075113939016,b,FA,No,0,379.989070235929,0,0,381,2800,13.5
22,6,27,SNR09,a,b,1.37619605323198,b,HIT,No,384.082191187195,385.45864240225,385,2804,386,2805,14.5
22,6,28,SNR11,a,b,1.23315946217008,b,HIT,No,398.58501022643,399.818340461709,399,2818,400,2819,14.5
22,6,29,SNR11,a,b,1.28791490880576,b,HIT,No,412.087946155438,413.37607032545,413,2832,414,2833,13.5
22,6,30,SNR07,a,b,0.920745597104542,b,HIT,No,426.590883509932,427.511776217093,427,2846,428,2847,14.5
22,6,31,SNR11,a,b,4.39470768718456,b,FA,No,440.593640112921,444.9886249144,441,2860,446,2865,14
22,6,32,SNR07,a,b,0.888595207292383,b,HIT,No,453.596564923146,454.485309236174,454,2873,455,2874,13
22,6,33,SNR07,a,b,0,None,None,No,467.099494009827,0,468,2887,0,0,13.5
22,0,0,None,None,None,0,None,None,No,0,0,0,0,0,0,0
22,0,0,None,None,None,0,None,None,No,0,0,0,0,0,0,0
22,0,0,None,None,None,0,None,None,No,0,0,0,0,0,0,0
22,0,0,None,None,None,0,None,None,No,0,0,0,0,0,0,0
22,0,0,None,None,None,0,None,None,No,0,0,0,0,0,0,0
22,0,0,None,None,None,0,None,None,No,0,0,0,0,0,0,0
22,0,0,None,None,None,0,None,None,No,0,0,0,0,0,0,0
22,0,0,None,None,None,0,None,None,No,0,0,0,0,0,0,0
22,0,0,None,None,None,0,None,None,No,0,0,0,0,0,0,0
22,0,0,None,None,None,0,None,None,No,0,0,0,0,0,0,0
22,0,0,None,None,None,0,None,None,No,0,0,0,0,0,0,0
22,0,0,None,None,None,0,None,None,No,0,0,0,0,0,0,0
22,0,0,None,None,None,0,None,None,No,0,0,0,0,0,0,0
22,0,0,None,None,None,0,None,None,No,0,0,0,0,0,0,0
