subject,block,trial,SNR,stim,correct_resp,RT,response,status,IsDouble,time_stim,time_resp,volume_stim,volume_stim_global,volume_resp,volume_resp_global,ISI
13,1,1,catch,catch,None,0,None,None,No,19.0831704689269,0,20,20,0,0,14
13,1,2,SNR11,a,b,0,None,None,No,32.0909469057759,0,33,33,0,0,13
13,1,3,SNR07,a,b,0.874927833607217,b,HIT,No,46.09477981445,46.9707682267723,47,47,47,47,14
13,1,4,SNR07,a,b,0.821022494819772,b,HIT,No,59.5997914765394,60.4209243057557,60,60,61,61,13.5
13,1,5,SNR09,a,b,0,None,None,No,73.6070327772993,0,74,74,0,0,14
13,1,6,SNR09,a,b,1.27684098076134,b,HIT,No,86.611391413703,87.888101247634,87,87,88,88,13
13,1,7,SNR11,a,b,0,None,None,No,101.614330243115,0,102,102,0,0,15
13,1,8,catch,catch,None,0,None,None,No,116.618447113187,0,117,117,0,0,15
13,1,9,SNR07,a,b,0.869510899301531,b,HIT,No,131.120819017659,131.990910099133,132,132,133,133,14.5
13,1,10,SNR11,a,b,0,None,None,No,145.623767397981,0,146,146,0,0,14.5
13,1,11,SNR09,a,b,0,None,None,No,160.126611145941,0,161,161,0,0,14.5
13,1,12,SNR09,a,b,0,None,None,No,173.629389605587,0,174,174,0,0,13.5
13,1,13,SNR07,a,b,1.04575570367524,b,HIT,No,188.132326581837,189.179297389408,189,189,190,190,14.5
13,1,14,SNR07,a,b,0.994937732339167,b,HIT,No,202.135057572033,203.13027584455,203,203,204,204,14
13,1,15,SNR11,a,b,0,None,None,No,217.137868105632,0,218,218,0,0,15
13,1,16,SNR11,a,b,0,None,None,No,230.140597100115,0,231,231,0,0,13
13,1,17,SNR11,a,b,0,None,None,No,244.143351468659,0,245,245,0,0,14
13,1,18,catch,catch,None,0,None,None,No,257.145963856504,0,258,258,0,0,13
13,1,19,SNR11,a,b,1.01801358738157,b,HIT,No,271.648732622689,272.666951198269,272,272,273,273,14.5
13,1,20,SNR11,a,b,0,None,None,No,285.651529471401,0,286,286,0,0,14
13,1,21,SNR09,a,b,0,None,None,No,300.654515057509,0,301,301,0,0,15
13,1,22,SNR09,a,b,0,None,None,No,314.657268570748,0,315,315,0,0,14
13,1,23,SNR07,a,b,0.879660523576604,b,HIT,No,327.660042326214,328.539857945174,328,328,329,329,13
13,1,24,SNR11,a,b,0,None,None,No,341.162806815872,0,342,342,0,0,13.5
13,1,25,SNR07,a,b,1.0568840824526,b,HIT,No,354.165700028995,355.222730368674,355,355,356,356,13
13,1,26,SNR07,a,b,0,None,None,No,367.668520113505,0,368,368,0,0,13.5
13,1,27,SNR09,a,b,0,None,None,No,382.171344474542,0,383,383,0,0,14.5
13,1,28,SNR11,a,b,0,None,None,No,395.674240396132,0,396,396,0,0,13.5
13,1,29,SNR09,a,b,0,None,None,No,409.176996332735,0,410,410,0,0,13.5
13,1,30,SNR07,a,b,0,None,None,No,424.17986616751,0,425,425,0,0,15
13,1,31,SNR09,a,b,0,None,None,No,439.182578055885,0,440,440,0,0,15
13,1,32,SNR07,a,b,1.10673669907555,b,HIT,No,454.185384883161,455.292308038816,455,455,456,456,15
13,1,33,SNR09,a,b,0.93693291469026,b,HIT,No,467.18814324313,468.125238095645,468,468,469,469,13
13,2,1,SNR07,a,b,1.00662491065668,b,HIT,No,19.5585352495596,20.5662481087059,20,505,21,506,14.5
13,2,2,SNR07,a,b,1.08353568434177,b,HIT,No,32.5654720615911,33.6499055315167,33,518,34,519,13
13,2,3,SNR07,a,b,1.1630075275425,b,HIT,No,45.5689705458474,46.7321451430484,46,531,47,532,13
13,2,4,SNR11,a,b,1.24744812501376,b,HIT,No,58.5723478618362,59.8200933480332,59,544,60,545,13
13,2,5,SNR11,a,b,0,None,None,No,71.5811694819044,0,72,557,0,0,13
13,2,6,SNR09,a,b,0,None,None,No,84.5840165085349,0,85,570,0,0,13
13,2,7,SNR11,a,b,0,None,None,No,99.0867214119154,0,100,585,0,0,14.5
13,2,8,SNR11,a,b,0,None,None,No,114.089611488919,0,115,600,0,0,15
13,2,9,SNR09,a,b,1.12604607416506,b,HIT,No,128.592372842456,129.71984499585,129,614,130,615,14.5
13,2,10,SNR07,a,b,0.935095148452092,b,HIT,No,142.595328207773,143.530757780642,143,628,144,629,14
13,2,11,SNR11,a,b,0.94438148446352,b,HIT,No,156.598133324438,157.542672185097,157,642,158,643,14
13,2,12,SNR07,a,b,1.05537903002187,b,HIT,No,171.600943858038,172.656514761574,172,657,173,658,15
13,2,13,SNR07,a,b,0.972385609315097,b,HIT,No,186.103893093665,187.076445772639,187,672,188,673,14.5
13,2,14,SNR09,a,b,1.24362947143163,b,HIT,No,199.606668987395,200.850503447023,200,685,201,686,13.5
13,2,15,SNR09,a,b,0.921845612243487,b,HIT,No,213.109512450253,214.031488354019,214,699,215,700,13.5
13,2,16,SNR11,a,b,0,None,None,No,226.612288629085,0,227,712,0,0,13.5
13,2,17,SNR11,a,b,0,None,None,No,241.615141642854,0,242,727,0,0,15
13,2,18,SNR11,a,b,0,None,None,No,255.618101854901,0,256,741,0,0,14
13,2,19,SNR09,a,b,0,None,None,No,269.620876180571,0,270,755,0,0,14
13,2,20,SNR09,a,b,0,None,None,No,284.6236755952,0,285,770,0,0,15
13,2,21,SNR09,a,b,0.91741769609871,b,HIT,No,299.626439372103,300.544034116422,300,785,301,786,15
13,2,22,SNR07,a,b,1.30738849881891,b,HIT,No,313.129462163997,314.436982950057,314,799,315,800,13.5
13,2,23,catch,catch,None,0,None,None,No,326.132940976228,0,327,812,0,0,13
13,2,24,SNR09,a,b,0,None,None,No,340.135754360846,0,341,826,0,0,14
13,2,25,SNR11,a,b,0,None,None,No,354.638668814053,0,355,840,0,0,14.5
13,2,26,SNR09,a,b,0,None,None,No,369.141429027184,0,370,855,0,0,14.5
13,2,27,SNR07,a,b,1.04027918309293,b,HIT,No,384.144262368928,385.184726583092,385,870,386,871,15
13,2,28,SNR09,a,b,0,None,None,No,397.147193215489,0,398,883,0,0,13
13,2,29,SNR07,a,b,0,None,None,No,410.650002466131,0,411,896,0,0,13.5
13,2,30,catch,catch,None,0,None,None,No,424.652947567782,0,425,910,0,0,14
13,2,31,SNR07,a,b,0.969628674854903,b,HIT,No,438.65564577127,439.625497965941,439,924,440,925,14
13,2,32,catch,catch,None,0,None,None,No,453.658457160175,0,454,939,0,0,15
13,2,33,SNR11,a,b,1.1880796654259,b,HIT,No,467.161152084992,468.34943702372,468,953,469,954,13.5
13,3,1,catch,catch,None,0,None,None,No,20.0074836372946,0,21,992,0,0,15
13,3,2,SNR11,a,b,0,None,None,No,34.0110374313012,0,35,1006,0,0,14
13,3,3,SNR11,a,b,0,None,None,No,48.0137496047776,0,49,1020,0,0,14
13,3,4,SNR11,a,b,0.952359773389617,b,HIT,No,63.0166696174704,63.9692928249284,64,1035,64,1035,15
13,3,5,SNR07,a,b,0.978773600370914,b,HIT,No,76.0216272527676,77.0006970739146,77,1048,78,1049,13
13,3,6,SNR07,a,b,0.942762106205919,b,HIT,No,89.524137146513,90.4670574842218,90,1061,91,1062,13.5
13,3,7,SNR09,a,b,1.0800334937594,b,HIT,No,102.52687155793,103.607076968079,103,1074,104,1075,13
13,3,8,SNR07,a,b,0.90491341600864,b,HIT,No,117.029780879305,117.934891585762,118,1089,118,1089,14.5
13,3,9,SNR09,a,b,1.00799910135902,b,HIT,No,130.03263645899,131.04089785401,131,1102,132,1103,13
13,3,10,SNR07,a,b,0.89221697729954,b,HIT,No,144.035435873619,144.927833605463,145,1116,145,1116,14
13,3,11,SNR07,a,b,0.905257248781709,b,HIT,No,157.538252536907,158.443736156525,158,1129,159,1130,13.5
13,3,12,SNR09,a,b,1.04250240697365,b,HIT,No,172.54100833096,173.58376789976,173,1144,174,1145,15
13,3,13,SNR07,a,b,1.17773731232592,b,HIT,No,187.543786648055,188.72169388106,188,1159,189,1160,15
13,3,14,SNR09,a,b,0.943862314077705,b,HIT,No,201.546482000525,202.490552153816,202,1173,203,1174,14
13,3,15,SNR11,a,b,1.09714387862186,b,HIT,No,215.049292961777,216.14659165068,216,1187,217,1188,13.5
13,3,16,catch,catch,None,0,None,None,No,229.05303406767,0,230,1201,0,0,14
13,3,17,SNR09,a,b,0,None,None,No,242.55526997858,0,243,1214,0,0,13.5
13,3,18,SNR11,a,b,0,None,None,No,257.058185001991,0,258,1229,0,0,14.5
13,3,19,SNR07,a,b,0.929015637546399,b,HIT,No,270.061083346947,270.990335048791,271,1242,271,1242,13
13,3,20,SNR09,a,b,0,None,None,No,284.563870074546,0,285,1256,0,0,14.5
13,3,21,SNR11,a,b,0,None,None,No,298.066671057234,0,299,1270,0,0,13.5
13,3,22,catch,catch,None,0,None,None,No,311.069390643358,0,312,1283,0,0,13
13,3,23,SNR09,a,b,1.02586785702078,b,HIT,No,325.572185068705,326.598208591315,326,1297,327,1298,14.5
13,3,24,SNR09,a,b,1.07693101591212,b,HIT,No,339.075008004233,340.152102668581,340,1311,341,1312,13.5
13,3,25,SNR11,a,b,0,None,None,No,352.077811980491,0,353,1324,0,0,13
13,3,26,SNR11,a,b,0,None,None,No,365.080578893514,0,366,1337,0,0,13
13,3,27,SNR11,a,b,0,None,None,No,379.583321145231,0,380,1351,0,0,14.5
13,3,28,SNR07,a,b,1.18147129067438,b,HIT,No,394.086131821381,395.267834329622,395,1366,396,1367,14.5
13,3,29,SNR09,a,b,1.38273149767701,b,HIT,No,408.088889611147,409.471804714386,409,1380,410,1381,14
13,3,30,SNR07,a,b,0.925887500536192,b,HIT,No,422.091708982902,423.017800331231,423,1394,424,1395,14
13,3,31,SNR09,a,b,0.968015568840201,b,HIT,No,437.094483593674,438.062813059601,438,1409,439,1410,15
13,3,32,SNR07,a,b,2.00017391210349,b,HIT,No,452.097266187296,454.097644802494,453,1424,455,1426,15
13,3,33,SNR11,a,b,0,None,None,No,467.100008866666,0,468,1439,0,0,15
13,4,1,SNR11,a,b,1.06463172402073,b,HIT,No,18.5072135033338,19.5720604792162,19,1474,20,1475,13.5
13,4,2,SNR09,a,b,0.818434910830547,b,HIT,No,33.5102113488195,34.3288398437756,34,1489,35,1490,15
13,4,3,SNR09,a,b,0.866590601504868,b,HIT,No,47.0129621535906,47.8797680069588,48,1503,48,1503,13.5
13,4,4,SNR11,a,b,0.985829870060115,b,HIT,No,61.5157118179545,62.5020180931308,62,1517,63,1518,14.5
13,4,5,SNR11,a,b,0,None,None,No,74.5184901350499,0,75,1530,0,0,13
13,4,6,SNR09,a,b,0.889241369754018,b,HIT,No,88.521317204554,89.4107016954149,89,1544,90,1545,14
13,4,7,SNR07,a,b,0.829161010959069,b,HIT,No,101.524177060766,102.35355674481,102,1557,103,1558,13
13,4,8,SNR07,a,b,0.903514706547867,b,HIT,No,115.526961935203,116.430649983649,116,1571,117,1572,14
13,4,9,SNR09,a,b,0.959595372114563,b,HIT,No,129.02973583322,129.989522223543,130,1585,130,1585,13.5
13,4,10,SNR11,a,b,0,None,None,No,144.03244544078,0,145,1600,0,0,15
13,4,11,SNR07,a,b,0.847919284256932,b,HIT,No,158.535301163016,159.383361857769,159,1614,160,1615,14.5
13,4,12,SNR07,a,b,0.905145773976983,b,HIT,No,172.038061661248,172.943379351616,173,1628,173,1628,13.5
13,4,13,SNR07,a,b,0.899262698221719,b,HIT,No,185.040802630007,185.940688560775,186,1641,186,1641,13
13,4,14,SNR11,a,b,0,None,None,No,200.043553292227,0,201,1656,0,0,15
13,4,15,catch,catch,None,0,None,None,No,214.046395757229,0,215,1670,0,0,14
13,4,16,SNR11,a,b,0,None,None,No,227.049162100049,0,228,1683,0,0,13
13,4,17,SNR09,a,b,0.860064050972142,b,HIT,No,240.051964080594,240.912230553847,241,1696,241,1696,13
13,4,18,SNR07,a,b,0.830203058059851,b,HIT,No,254.054706474862,254.885082589717,255,1710,255,1710,14
13,4,19,SNR09,a,b,0.977177885564743,b,HIT,No,268.557623208884,269.534984129808,269,1724,270,1725,14.5
13,4,20,SNR07,a,b,0.958333226419199,b,HIT,No,283.060375724265,284.018886569111,284,1739,285,1740,14.5
13,4,21,SNR07,a,b,0.870450024649472,b,HIT,No,298.063166870942,298.93380962441,299,1754,299,1754,15
13,4,22,SNR07,a,b,0.925729554135614,b,HIT,No,313.065819173039,313.991788782898,314,1769,314,1769,15
13,4,23,SNR09,a,b,1.73610492202715,b,HIT,No,326.068561567307,327.804810465745,327,1782,328,1783,13
13,4,24,SNR11,a,b,0,None,None,No,340.071408308836,0,341,1796,0,0,14
13,4,25,SNR07,a,b,1.1781738031932,b,HIT,No,353.574245499454,354.752626571659,354,1809,355,1810,13.5
13,4,26,catch,catch,None,0,None,None,No,366.576869576473,0,367,1822,0,0,13
13,4,27,SNR11,a,b,0,None,None,No,380.579653310502,0,381,1836,0,0,14
13,4,28,SNR09,a,b,1.08194282055047,b,HIT,No,395.082426353214,396.164548787904,396,1851,397,1852,14.5
13,4,29,SNR11,a,b,0.968107941822382,b,HIT,No,409.585281790348,410.553566495292,410,1865,411,1866,14.5
13,4,30,catch,catch,None,0,None,None,No,424.587840579053,0,425,1880,0,0,15
13,4,31,SNR09,a,b,1.29242949218315,b,HIT,No,438.590662801827,439.883761142848,439,1894,440,1895,14
13,4,32,SNR11,a,b,0,None,None,No,452.093387947435,0,453,1908,0,0,13.5
13,4,33,SNR09,a,b,0.978890777212655,b,HIT,No,467.096295415649,468.075322471525,468,1923,469,1924,15
13,5,1,SNR09,a,b,0.905747053686355,b,HIT,No,20.0587161466552,20.9653994746714,21,1962,21,1962,15
13,5,2,SNR09,a,b,0.901524981050898,b,HIT,No,33.5659661430202,34.4677032398114,34,1975,35,1976,13.5
13,5,3,catch,catch,None,0,None,None,No,48.5691800956745,0,49,1990,0,0,15
13,5,4,SNR11,a,b,0,None,None,No,63.0724874191701,0,64,2005,0,0,14.5
13,5,5,SNR09,a,b,0.96081560784296,b,HIT,No,77.0795972879976,78.0405970716053,78,2019,79,2020,14
13,5,6,SNR07,a,b,0.876871657717857,b,HIT,No,90.5837345428492,91.4607156796585,91,2032,92,2033,13.5
13,5,7,SNR07,a,b,0.893332295559958,b,HIT,No,105.086713143963,105.980905591673,106,2047,106,2047,14.5
13,5,8,SNR07,a,b,0.897552372487553,b,HIT,No,118.589514696856,119.487277189375,119,2060,120,2061,13.5
13,5,9,SNR07,a,b,1.01854729796105,b,HIT,No,131.592281609879,132.611094337622,132,2073,133,2074,13
13,5,10,SNR09,a,b,0,None,None,No,146.095099698676,0,147,2088,0,0,14.5
13,5,11,SNR09,a,b,0,None,None,No,160.097927623485,0,161,2102,0,0,14
13,5,12,SNR09,a,b,0.922194006649079,b,HIT,No,174.600653054196,175.523000160512,175,2116,176,2117,14.5
13,5,13,catch,catch,None,0,None,None,No,187.604549255471,0,188,2129,0,0,13
13,5,14,SNR07,a,b,0.859678593329591,b,HIT,No,200.606898494349,201.466974234495,201,2142,202,2143,13
13,5,15,SNR11,a,b,0,None,None,No,214.609634046173,0,215,2156,0,0,14
13,5,16,SNR09,a,b,0,None,None,No,227.612492191774,0,228,2169,0,0,13
13,5,17,SNR11,a,b,0,None,None,No,242.115377564598,0,243,2184,0,0,14.5
13,5,18,SNR11,a,b,0,None,None,No,257.118276194655,0,258,2199,0,0,15
13,5,19,SNR09,a,b,0.984433156314481,b,HIT,No,270.620973115185,271.605575051767,271,2212,272,2213,13.5
13,5,20,catch,catch,None,0,None,None,No,284.623572388346,0,285,2226,0,0,14
13,5,21,SNR09,a,b,0.944689109310275,b,HIT,No,299.626506941231,300.571415864034,300,2241,301,2242,15
13,5,22,SNR11,a,b,0,None,None,No,313.129441921769,0,314,2255,0,0,13.5
13,5,23,SNR11,a,b,0,None,None,No,326.632298784411,0,327,2268,0,0,13.5
13,5,24,SNR09,a,b,0,None,None,No,339.635173751019,0,340,2281,0,0,13
13,5,25,SNR07,a,b,0.928199391080852,b,HIT,No,354.137968461468,355.06633720302,355,2296,356,2297,14.5
13,5,26,SNR07,a,b,0.945115621612786,b,HIT,No,368.14086623622,369.086166603802,369,2310,370,2311,14
13,5,27,SNR07,a,b,0.97311005300071,b,HIT,No,383.143821031333,384.117120677037,384,2325,385,2326,15
13,5,28,SNR11,a,b,0,None,None,No,398.146525221959,0,399,2340,0,0,15
13,5,29,SNR07,a,b,0.866549546844908,b,HIT,No,413.149350865954,414.016044104109,414,2355,415,2356,15
13,5,30,SNR07,a,b,0.855950887220388,b,HIT,No,427.152233245208,428.008282207452,428,2369,429,2370,14
13,5,31,SNR11,a,b,0,None,None,No,441.155211703771,0,442,2383,0,0,14
13,5,32,SNR11,a,b,0,None,None,No,454.158019386353,0,455,2396,0,0,13
13,5,33,SNR11,a,b,0,None,None,No,467.160732415134,0,468,2409,0,0,13
13,6,1,SNR07,a,b,0.91974982886677,b,HIT,No,20.0093547604446,20.9291775753745,21,2449,21,2449,15
13,6,2,SNR07,a,b,0.855608194851811,b,HIT,No,35.0119742758343,35.8677509658536,36,2464,36,2464,15
13,6,3,SNR07,a,b,0.92194938929606,b,HIT,No,49.0149185221805,49.9370706188619,50,2478,50,2478,14
13,6,4,SNR11,a,b,0.924082806108345,b,HIT,No,63.0178804448386,63.9421157804135,64,2492,64,2492,14
13,6,5,SNR07,a,b,0.839030665265454,b,HIT,No,76.0208606140123,76.8600711785168,77,2505,77,2505,13
13,6,6,SNR09,a,b,0,None,None,No,89.0236583180305,0,90,2518,0,0,13
13,6,7,SNR11,a,b,0,None,None,No,102.02644205206,0,103,2531,0,0,13
13,6,8,SNR09,a,b,0.91122043814903,b,HIT,No,117.029419370216,117.940820277809,118,2546,118,2546,15
13,6,9,SNR07,a,b,0.902209510481043,b,HIT,No,131.032333395771,131.934755021997,132,2560,132,2560,14
13,6,10,SNR09,a,b,0,None,None,No,145.535298311998,0,146,2574,0,0,14.5
13,6,11,catch,catch,None,0,None,None,No,158.538066935632,0,159,2587,0,0,13
13,6,12,SNR07,a,b,0,None,None,No,173.040894432789,0,174,2602,0,0,14.5
13,6,13,SNR11,a,b,0,None,None,No,186.043628274002,0,187,2615,0,0,13
13,6,14,SNR11,a,b,0,None,None,No,201.046381217037,0,202,2630,0,0,15
13,6,15,SNR11,a,b,0,None,None,No,216.049164665965,0,217,2645,0,0,15
13,6,16,SNR09,a,b,0.898157358518802,b,HIT,No,230.05213400127,230.950427353351,231,2659,231,2659,14
13,6,17,SNR11,a,b,0.860336038091191,b,HIT,No,244.554857151166,245.415370237481,245,2673,246,2674,14.5
13,6,18,catch,catch,None,0,None,None,No,258.557458134938,0,259,2687,0,0,14
13,6,19,catch,catch,None,0,None,None,No,273.560064820747,0,274,2702,0,0,15
13,6,20,SNR09,a,b,0.843170913685753,b,HIT,No,287.562832874177,288.406211056875,288,2716,289,2717,14
13,6,21,SNR07,a,b,0.874570601041341,b,HIT,No,301.065534356336,301.940263188881,302,2730,302,2730,13.5
13,6,22,SNR11,a,b,1.05478288214726,b,HIT,No,314.568237264003,315.623188926418,315,2743,316,2744,13.5
13,6,23,SNR09,a,b,0.946545407168742,b,HIT,No,328.071001753661,329.017682584186,329,2757,330,2758,13.5
13,6,24,SNR09,a,b,0.877007081075135,b,HIT,No,341.073770377295,341.95099556125,342,2770,342,2770,13
13,6,25,SNR09,a,b,1.01707873856139,b,HIT,No,356.076712342827,357.093976967766,357,2785,358,2786,15
13,6,26,SNR09,a,b,0.917188759347482,b,HIT,No,369.579630502358,370.496988041975,370,2798,371,2799,13.5
13,6,27,SNR09,a,b,1.00836488697678,b,HIT,No,384.08233569084,385.090840847904,385,2813,386,2814,14.5
13,6,28,SNR11,a,b,0,None,None,No,398.585262403425,0,399,2827,0,0,14.5
13,6,29,SNR11,a,b,0,None,None,No,412.088150627267,0,413,2841,0,0,13.5
13,6,30,SNR07,a,b,0.964722072782024,b,HIT,No,426.590819892921,427.555723290451,427,2855,428,2856,14.5
13,6,31,SNR11,a,b,0,None,None,No,440.593692863816,0,441,2869,0,0,14
13,6,32,SNR07,a,b,0.94983776281515,b,HIT,No,453.596603753251,454.546604879403,454,2882,455,2883,13
13,6,33,SNR07,a,b,0,None,None,No,467.099530465836,0,468,2896,0,0,13.5
13,0,0,None,None,None,0,None,None,No,0,0,0,0,0,0,0
13,0,0,None,None,None,0,None,None,No,0,0,0,0,0,0,0
13,0,0,None,None,None,0,None,None,No,0,0,0,0,0,0,0
13,0,0,None,None,None,0,None,None,No,0,0,0,0,0,0,0
13,0,0,None,None,None,0,None,None,No,0,0,0,0,0,0,0
13,0,0,None,None,None,0,None,None,No,0,0,0,0,0,0,0
13,0,0,None,None,None,0,None,None,No,0,0,0,0,0,0,0
13,0,0,None,None,None,0,None,None,No,0,0,0,0,0,0,0
13,0,0,None,None,None,0,None,None,No,0,0,0,0,0,0,0
13,0,0,None,None,None,0,None,None,No,0,0,0,0,0,0,0
13,0,0,None,None,None,0,None,None,No,0,0,0,0,0,0,0
13,0,0,None,None,None,0,None,None,No,0,0,0,0,0,0,0
13,0,0,None,None,None,0,None,None,No,0,0,0,0,0,0,0
13,0,0,None,None,None,0,None,None,No,0,0,0,0,0,0,0
13,0,0,None,None,None,0,None,None,No,0,0,0,0,0,0,0
13,0,0,None,None,None,0,None,None,No,0,0,0,0,0,0,0
13,0,0,None,None,None,0,None,None,No,0,0,0,0,0,0,0
13,0,0,None,None,None,0,None,None,No,0,0,0,0,0,0,0
13,0,0,None,None,None,0,None,None,No,0,0,0,0,0,0,0
13,0,0,None,None,None,0,None,None,No,0,0,0,0,0,0,0
13,0,0,None,None,None,0,None,None,No,0,0,0,0,0,0,0
13,0,0,None,None,None,0,None,None,No,0,0,0,0,0,0,0
