subject,block,trial,SNR,stim,correct_resp,RT,response,status,IsDouble,time_stim,time_resp,volume_stim,volume_stim_global,volume_resp,volume_resp_global,ISI
12,1,1,catch,catch,None,0,None,None,No,19.0689434957102,0,20,20,0,0,14
12,1,2,SNR11,a,b,0,None,None,No,32.0764077035209,0,33,33,0,0,13
12,1,3,SNR07,a,b,0.852593798672387,b,HIT,No,46.0800350331101,46.9335727984778,47,47,47,47,14
12,1,4,SNR07,a,b,0.906370820110169,b,HIT,No,59.585119652269,60.4916338777701,60,60,61,61,13.5
12,1,5,SNR09,a,b,0,None,None,No,73.5922819389891,0,74,74,0,0,14
12,1,6,SNR09,a,b,0.91837268238487,b,HIT,No,86.5993267644351,87.5173616031069,87,87,88,88,13
12,1,7,SNR11,a,b,0,None,None,No,101.602530720257,0,102,102,0,0,15
12,1,8,catch,catch,None,0,None,None,No,116.606447141429,0,117,117,0,0,15
12,1,9,SNR07,a,b,0.817783351802063,b,HIT,No,131.108833287385,131.927316275029,132,132,132,132,14.5
12,1,10,SNR11,a,b,0,None,None,No,145.611615722591,0,146,146,0,0,14.5
12,1,11,SNR09,a,b,0.86196504158579,b,HIT,No,160.114416404208,160.977504740503,161,161,162,162,14.5
12,1,12,SNR09,a,b,0,None,None,No,173.61728722047,0,174,174,0,0,13.5
12,1,13,SNR07,a,b,0.952817915922424,b,HIT,No,188.120096740193,189.073218002708,189,189,190,190,14.5
12,1,14,SNR07,a,b,0.881253779358303,b,HIT,No,202.122902981264,203.004280209001,203,203,204,204,14
12,1,15,SNR11,a,b,0.871842337319322,b,HIT,No,217.125807581897,217.997846638341,218,218,219,219,15
12,1,16,SNR11,a,b,1.00386168193654,b,HIT,No,230.128677400308,231.132767162389,231,231,232,232,13
12,1,17,SNR11,a,b,0,None,None,No,244.13140523883,0,245,245,0,0,14
12,1,18,catch,catch,None,0,None,None,No,257.134022743582,0,258,258,0,0,13
12,1,19,SNR11,a,b,0,None,None,No,271.636848514015,0,272,272,0,0,14.5
12,1,20,SNR11,a,b,0,None,None,No,285.639743421242,0,286,286,0,0,14
12,1,21,SNR09,a,b,0,None,None,No,300.642512029089,0,301,301,0,0,15
12,1,22,SNR09,a,b,0.883523746992068,b,HIT,No,314.645245569614,315.528985992743,315,315,316,316,14
12,1,23,SNR07,a,b,0,None,None,No,327.648104839319,0,328,328,0,0,13
12,1,24,SNR11,a,b,0,None,None,No,341.15110081456,0,342,342,0,0,13.5
12,1,25,SNR07,a,b,0,None,None,No,354.153893941022,0,355,355,0,0,13
12,1,26,SNR07,a,b,1.03927768158792,b,HIT,No,367.65699597353,368.696459825536,368,368,369,369,13.5
12,1,27,SNR09,a,b,0,None,None,No,382.15979979125,0,383,383,0,0,14.5
12,1,28,SNR11,a,b,0,None,None,No,395.662578805253,0,396,396,0,0,13.5
12,1,29,SNR09,a,b,0.997438945085378,b,HIT,No,409.165383763374,410.163230971915,410,410,411,411,13.5
12,1,30,SNR07,a,b,1.01323948215577,b,HIT,No,424.168465981419,425.182019358872,425,425,426,426,15
12,1,30,SNR07,a,b,9.68717838917837,b,FA,No,0,433.858029803803,0,0,434,434,15
12,1,31,SNR09,a,b,0,None,None,No,439.171255686679,0,440,440,0,0,15
12,1,32,SNR07,a,b,1.12851289750506,b,HIT,No,454.173951308881,455.302652372504,455,455,456,456,15
12,1,33,SNR09,a,b,0,None,None,No,467.176795753376,0,468,468,0,0,13
12,2,1,SNR07,a,b,0.832389604220225,b,HIT,No,19.508716510351,20.341232699052,20,504,21,505,14.5
12,2,2,SNR07,a,b,0.920429395084284,b,HIT,No,32.5112998030813,33.4319293384906,33,517,34,518,13
12,2,3,SNR07,a,b,0.894461900494207,b,HIT,No,45.5141086100539,46.4088134159021,46,530,47,531,13
12,2,4,SNR11,a,b,0,None,None,No,58.5169222637296,0,59,543,0,0,13
12,2,5,SNR11,a,b,0,None,None,No,71.5197878056381,0,72,556,0,0,13
12,2,6,SNR09,a,b,0.838828306683354,b,HIT,No,84.5225897702064,85.3615757372905,85,569,86,570,13
12,2,7,SNR11,a,b,0,None,None,No,99.0254258042462,0,100,584,0,0,14.5
12,2,8,SNR11,a,b,0,None,None,No,114.028344659888,0,115,599,0,0,15
12,2,9,SNR09,a,b,0,None,None,No,128.531223458955,0,129,613,0,0,14.5
12,2,10,SNR07,a,b,0,None,None,No,142.534096413468,0,143,627,0,0,14
12,2,11,SNR11,a,b,0,None,None,No,156.536985618692,0,157,641,0,0,14
12,2,12,SNR07,a,b,1.17357184054163,b,HIT,No,171.539814667777,172.713685293307,172,656,173,657,15
12,2,13,SNR07,a,b,0.911780881126106,b,HIT,No,186.042643289212,186.954590953942,187,671,187,671,14.5
12,2,14,SNR09,a,b,0,None,None,No,199.545410329008,0,200,684,0,0,13.5
12,2,15,SNR09,a,b,0.890791520778293,b,HIT,No,213.048250069351,213.939291908087,214,698,214,698,13.5
12,2,16,SNR11,a,b,0,None,None,No,226.551093515995,0,227,711,0,0,13.5
12,2,17,SNR11,a,b,0,None,None,No,241.553856136739,0,242,726,0,0,15
12,2,18,SNR11,a,b,0,None,None,No,255.556582549759,0,256,740,0,0,14
12,2,19,SNR09,a,b,0,None,None,No,269.559405611741,0,270,754,0,0,14
12,2,20,SNR09,a,b,0,None,None,No,284.562268017547,0,285,769,0,0,15
12,2,21,SNR09,a,b,0,None,None,No,299.565114457744,0,300,784,0,0,15
12,2,22,SNR07,a,b,0,None,None,No,313.068140653604,0,314,798,0,0,13.5
12,2,23,catch,catch,None,0,None,None,No,326.071121946185,0,327,811,0,0,13
12,2,24,SNR09,a,b,0.951876230030393,b,HIT,No,340.073967816181,341.026062432948,341,825,342,826,14
12,2,25,SNR11,a,b,0,None,None,No,354.576714613865,0,355,839,0,0,14.5
12,2,26,SNR09,a,b,0,None,None,No,369.079498189471,0,370,854,0,0,14.5
12,2,27,SNR07,a,b,1.01806052619759,b,HIT,No,384.082337787263,385.100609572695,385,869,386,870,15
12,2,28,SNR09,a,b,0,None,None,No,397.085164555547,0,398,882,0,0,13
12,2,29,SNR07,a,b,1.03144597964638,b,HIT,No,410.587928174141,411.619535520489,411,895,412,896,13.5
12,2,30,catch,catch,None,13.3875209940652,b,FA,No,424.59050833077,437.978226329059,425,909,438,922,14
12,2,31,SNR07,a,b,1.62152608994438,b,HIT,No,438.593302027433,440.215106945354,439,923,441,925,14
12,2,32,catch,catch,None,0,None,None,No,453.5959440508,0,454,938,0,0,15
12,2,33,SNR11,a,b,0,None,None,No,467.098823990268,0,468,952,0,0,13.5
12,3,1,catch,catch,None,0,None,None,No,20.0073513081394,0,21,992,0,0,15
12,3,2,SNR11,a,b,0,None,None,No,34.0106789974395,0,35,1006,0,0,14
12,3,3,SNR11,a,b,0,None,None,No,48.0133572285297,0,49,1020,0,0,14
12,3,4,SNR11,a,b,0,None,None,No,63.0161728779067,0,64,1035,0,0,15
12,3,5,SNR07,a,b,0.909724738627119,b,HIT,No,76.0210418187795,76.9308854441818,77,1048,77,1048,13
12,3,6,SNR07,a,b,0.928628591158486,b,HIT,No,89.523728460325,90.4526125012437,90,1061,91,1062,13.5
12,3,7,SNR09,a,b,0,None,None,No,102.526608542343,0,103,1074,0,0,13
12,3,8,SNR07,a,b,0.850640292239405,b,HIT,No,117.029450278386,117.880310953064,118,1089,118,1089,14.5
12,3,9,SNR09,a,b,0.945894258054977,b,HIT,No,130.032310118291,130.978376006653,131,1102,131,1102,13
12,3,10,SNR07,a,b,0.881701956843244,b,HIT,No,144.035194761911,144.917216316055,145,1116,145,1116,14
12,3,11,SNR07,a,b,0.947925026635858,b,HIT,No,157.537955244404,158.486045629143,158,1129,159,1130,13.5
12,3,12,SNR09,a,b,0.942685170428376,b,HIT,No,172.540933685983,173.483859480964,173,1144,174,1145,15
12,3,13,SNR07,a,b,0.839586388063253,b,HIT,No,187.543973709202,188.383749403784,188,1159,189,1160,15
12,3,14,SNR09,a,b,1.048594755468,b,HIT,No,201.54675913796,202.595552893353,202,1173,203,1174,14
12,3,15,SNR11,a,b,0,None,None,No,215.049539862565,0,216,1187,0,0,13.5
12,3,16,catch,catch,None,0,None,None,No,229.052675964544,0,230,1201,0,0,14
12,3,17,SNR09,a,b,0,None,None,No,242.55533238547,0,243,1214,0,0,13.5
12,3,18,SNR11,a,b,0,None,None,No,257.05818467022,0,258,1229,0,0,14.5
12,3,19,SNR07,a,b,1.18168607676125,b,HIT,No,270.060990341091,271.242895089691,271,1242,272,1243,13
12,3,20,SNR09,a,b,0,None,None,No,284.563818962526,0,285,1256,0,0,14.5
12,3,21,SNR11,a,b,0,None,None,No,298.066833754379,0,299,1270,0,0,13.5
12,3,22,catch,catch,None,0,None,None,No,311.069436148821,0,312,1283,0,0,13
12,3,23,SNR09,a,b,0,None,None,No,325.572378810328,0,326,1297,0,0,14.5
12,3,24,SNR09,a,b,0,None,None,No,339.075160105134,0,340,1311,0,0,13.5
12,3,25,SNR11,a,b,0,None,None,No,352.077929283181,0,353,1324,0,0,13
12,3,26,SNR11,a,b,0,None,None,No,365.08070045693,0,366,1337,0,0,13
12,3,27,SNR11,a,b,0,None,None,No,379.583529363465,0,380,1351,0,0,14.5
12,3,28,SNR07,a,b,0.96417687729263,b,HIT,No,394.086304956267,395.05072160281,395,1366,396,1367,14.5
12,3,29,SNR09,a,b,0,None,None,No,408.08925659843,0,409,1380,0,0,14
12,3,30,SNR07,a,b,0.853220448867432,b,HIT,No,422.092052575894,422.945470599186,423,1394,423,1394,14
12,3,31,SNR09,a,b,0,None,None,No,437.094836008951,0,438,1409,0,0,15
12,3,32,SNR07,a,b,0,None,None,No,452.09767133024,0,453,1424,0,0,15
12,3,33,SNR11,a,b,0,None,None,No,467.100505796229,0,468,1439,0,0,15
12,4,1,SNR11,a,b,0,None,None,No,18.5060987204989,0,19,1475,0,0,13.5
12,4,2,SNR09,a,b,0.849478509006076,b,HIT,No,33.5089522881998,34.3586708515572,34,1490,35,1491,15
12,4,3,SNR09,a,b,1.25345691095572,b,HIT,No,47.0117655142252,48.2655440181848,48,1504,49,1505,13.5
12,4,4,SNR11,a,b,0,None,None,No,61.5146203648769,0,62,1518,0,0,14.5
12,4,5,SNR11,a,b,0,None,None,No,74.5174009469317,0,75,1531,0,0,13
12,4,6,SNR09,a,b,0.942621593088916,b,HIT,No,88.5201952137952,89.4630078240042,89,1545,90,1546,14
12,4,7,SNR07,a,b,0.815812169159472,b,HIT,No,101.523155694064,102.339178267155,102,1558,103,1559,13
12,4,8,SNR07,a,b,0.863631737238393,b,HIT,No,115.52592316151,116.389775851388,116,1572,117,1573,14
12,4,9,SNR09,a,b,0.93264394209109,b,HIT,No,129.028815930486,129.961649464197,130,1586,130,1586,13.5
12,4,10,SNR11,a,b,0,None,None,No,144.031561160118,0,145,1601,0,0,15
12,4,11,SNR07,a,b,0.796845024389768,b,HIT,No,158.534321927711,159.331445780075,159,1615,160,1616,14.5
12,4,12,SNR07,a,b,0.901845710055568,b,HIT,No,172.037153115047,172.939289912386,173,1629,173,1629,13.5
12,4,13,SNR07,a,b,0.853934339716943,b,HIT,No,185.039969049524,185.894139452191,186,1642,186,1642,13
12,4,14,SNR11,a,b,0,None,None,No,200.042747635878,0,201,1657,0,0,15
12,4,15,catch,catch,None,0,None,None,No,214.045389374145,0,215,1671,0,0,14
12,4,16,SNR11,a,b,0,None,None,No,227.048160262794,0,228,1684,0,0,13
12,4,17,SNR09,a,b,0.936450314593458,b,HIT,No,240.051004422189,240.987653736708,241,1697,241,1697,13
12,4,18,SNR07,a,b,0.881287136080573,b,HIT,No,254.053990276373,254.935479263381,255,1711,255,1711,14
12,4,19,SNR09,a,b,0,None,None,No,268.556776702982,0,269,1725,0,0,14.5
12,4,20,SNR07,a,b,0.986588887535618,b,HIT,No,283.059551440483,284.046319370932,284,1740,285,1741,14.5
12,4,21,SNR07,a,b,0.821421230099077,b,HIT,No,298.062402442282,298.884019821305,299,1755,299,1755,15
12,4,22,SNR07,a,b,0,None,None,No,313.065184164738,0,314,1770,0,0,15
12,4,23,SNR09,a,b,0,None,None,No,326.068022051929,0,327,1783,0,0,13
12,4,24,SNR11,a,b,0,None,None,No,340.070898712744,0,341,1797,0,0,14
12,4,25,SNR07,a,b,1.030570436993,b,HIT,No,353.573716785473,354.604514732409,354,1810,355,1811,13.5
12,4,26,catch,catch,None,0,None,None,No,366.576302929205,0,367,1823,0,0,13
12,4,27,SNR11,a,b,1.02687354295995,b,HIT,No,380.579198406632,381.606253843507,381,1837,382,1838,14
12,4,28,SNR09,a,b,0.91194852002991,b,HIT,No,395.081963165627,395.994788653811,396,1852,397,1853,14.5
12,4,29,SNR11,a,b,0,None,None,No,409.584768408847,0,410,1866,0,0,14.5
12,4,30,catch,catch,None,0,None,None,No,424.58745006114,0,425,1881,0,0,15
12,4,31,SNR09,a,b,1.07516438163475,b,HIT,No,438.59036549558,439.665734294045,439,1895,440,1896,14
12,4,32,SNR11,a,b,0,None,None,No,452.093175870603,0,453,1909,0,0,13.5
12,4,33,SNR09,a,b,0,None,None,No,467.095925376738,0,468,1924,0,0,15
12,5,1,SNR09,a,b,0,None,None,No,20.0078328423433,0,21,1964,0,0,15
12,5,2,SNR09,a,b,0.948570493443185,b,HIT,No,33.5106725826855,34.4594779986766,34,1977,35,1978,13.5
12,5,3,catch,catch,None,0,None,None,No,48.5132313568003,0,49,1992,0,0,15
12,5,4,SNR11,a,b,0.916850532525132,b,HIT,No,63.0160879180531,63.9331565522151,64,2007,64,2007,14.5
12,5,5,SNR09,a,b,0.894951132402639,b,HIT,No,77.0188867465194,77.9140271854426,78,2021,78,2021,14
12,5,6,SNR07,a,b,0.8869971224849,b,HIT,No,90.5216897089384,91.4088915333515,91,2034,92,2035,13.5
12,5,7,SNR07,a,b,0.880077741116111,b,HIT,No,105.024523177077,105.904778820706,106,2049,106,2049,14.5
12,5,8,SNR07,a,b,0.797242454040315,b,HIT,No,118.527400835743,119.324788975974,119,2062,120,2063,13.5
12,5,9,SNR07,a,b,0.869189765246119,b,HIT,No,131.530152907779,132.399534830546,132,2075,133,2076,13
12,5,10,SNR09,a,b,0.882190333451945,b,HIT,No,146.032959861601,146.915543348199,147,2090,147,2090,14.5
12,5,11,SNR09,a,b,0.847180316455706,b,HIT,No,160.035816565404,160.883288539343,161,2104,161,2104,14
12,5,12,SNR09,a,b,0,None,None,No,174.538672556456,0,175,2118,0,0,14.5
12,5,13,catch,catch,None,0,None,None,No,187.541427479495,0,188,2131,0,0,13
12,5,14,SNR07,a,b,0.895545851379211,b,HIT,No,200.544281902496,201.440003660686,201,2144,202,2145,13
12,5,15,SNR11,a,b,0,None,None,No,214.547042242438,0,215,2158,0,0,14
12,5,16,SNR09,a,b,0.912668112885513,b,HIT,No,227.54978633167,228.462922864151,228,2171,229,2172,13
12,5,17,SNR11,a,b,0,None,None,No,242.052504619336,0,243,2186,0,0,14.5
12,5,18,SNR11,a,b,0,None,None,No,257.055285486491,0,258,2201,0,0,15
12,5,19,SNR09,a,b,0.895966944344764,b,HIT,No,270.558000352954,271.454202790047,271,2214,272,2215,13.5
12,5,20,catch,catch,None,0,None,None,No,284.560581649983,0,285,2228,0,0,14
12,5,21,SNR09,a,b,1.55858338282087,b,HIT,No,299.56339786956,301.122173409904,300,2243,302,2245,15
12,5,22,SNR11,a,b,0.927879062783177,b,HIT,No,313.066130412235,313.994102987878,314,2257,315,2258,13.5
12,5,23,SNR11,a,b,0,None,None,No,326.569008356001,0,327,2270,0,0,13.5
12,5,24,SNR09,a,b,0.916839983818136,b,HIT,No,339.571828852081,340.488843602309,340,2283,341,2284,13
12,5,25,SNR07,a,b,0.822543954607681,b,HIT,No,354.074655192715,354.89751190222,355,2298,355,2298,14.5
12,5,26,SNR07,a,b,0.96967389386009,b,HIT,No,368.077379324934,369.047237393512,369,2312,370,2313,14
12,5,27,SNR07,a,b,0.964881930038246,b,HIT,No,383.080125694967,384.045182961615,384,2327,385,2328,15
12,5,28,SNR11,a,b,0,None,None,No,398.082907132323,0,399,2342,0,0,15
12,5,29,SNR07,a,b,1.05292913350422,b,HIT,No,413.085754142719,414.138907650065,414,2357,415,2358,15
12,5,30,SNR07,a,b,0.864921530452193,b,HIT,No,427.088802433843,427.953871931289,428,2371,428,2371,14
12,5,31,SNR11,a,b,0,None,None,No,441.091610670615,0,442,2385,0,0,14
12,5,32,SNR11,a,b,0,None,None,No,454.094415771286,0,455,2398,0,0,13
12,5,33,SNR11,a,b,0.885952800525047,b,HIT,No,467.097189796037,467.983363834301,468,2411,468,2411,13
12,6,1,SNR07,a,b,0.807190739717043,b,HIT,No,20.0072153153536,20.8145947913908,21,2451,21,2451,15
12,6,2,SNR07,a,b,0.895021552149046,b,HIT,No,35.0101572641102,35.9054465253273,36,2466,36,2466,15
12,6,3,SNR07,a,b,0.862119280782281,b,HIT,No,49.0128876685334,49.8752307529581,50,2480,50,2480,14
12,6,4,SNR11,a,b,0,None,None,No,63.0157001818084,0,64,2494,0,0,14
12,6,5,SNR07,a,b,0.91610014885191,b,HIT,No,76.0186655087798,76.9350362177014,77,2507,77,2507,13
12,6,6,SNR09,a,b,1.13229418119045,b,HIT,No,89.021503681071,90.1539478249565,90,2520,91,2521,13
12,6,7,SNR11,a,b,0.910259586566099,b,HIT,No,102.024288824729,102.93473287111,103,2533,103,2533,13
12,6,8,SNR09,a,b,0,None,None,No,117.027055436875,0,118,2548,0,0,15
12,6,9,SNR07,a,b,0.926600388478619,b,HIT,No,131.029878498856,131.956651087842,132,2562,132,2562,14
12,6,10,SNR09,a,b,0,None,None,No,145.53267347847,0,146,2576,0,0,14.5
12,6,11,catch,catch,None,0,None,None,No,158.535322914442,0,159,2589,0,0,13
12,6,12,SNR07,a,b,0.834712030286028,b,HIT,No,173.038126161961,173.873061710789,174,2604,174,2604,14.5
12,6,13,SNR11,a,b,0,None,None,No,186.040883650902,0,187,2617,0,0,13
12,6,14,SNR11,a,b,0,None,None,No,201.043710134085,0,202,2632,0,0,15
12,6,15,SNR11,a,b,0,None,None,No,216.046494137342,0,217,2647,0,0,15
12,6,16,SNR09,a,b,0.992127528730634,b,HIT,No,230.049184912841,231.041521990205,231,2661,232,2662,14
12,6,17,SNR11,a,b,0,None,None,No,244.55206713311,0,245,2675,0,0,14.5
12,6,18,catch,catch,None,0,None,None,No,258.554696326969,0,259,2689,0,0,14
12,6,19,catch,catch,None,0,None,None,No,273.557253960683,0,274,2704,0,0,15
12,6,20,SNR09,a,b,0,None,None,No,287.560045376545,0,288,2718,0,0,14
12,6,21,SNR07,a,b,0.979957172250579,b,HIT,No,301.062850904865,302.042974290521,302,2732,303,2733,13.5
12,6,22,SNR11,a,b,0,None,None,No,314.565664701091,0,315,2745,0,0,13.5
12,6,23,SNR09,a,b,0,None,None,No,328.068445995896,0,329,2759,0,0,13.5
12,6,24,SNR09,a,b,1.14325913411085,b,HIT,No,341.071183242724,342.214631968454,342,2772,343,2773,13
12,6,25,SNR09,a,b,1.02539957502995,b,HIT,No,356.073958692975,357.099532464215,357,2787,358,2788,15
12,6,26,SNR09,a,b,0,None,None,No,369.576701784356,0,370,2800,0,0,13.5
12,6,27,SNR09,a,b,1.00427906860023,b,HIT,No,384.079611374243,385.084112820984,385,2815,386,2816,14.5
12,6,28,SNR11,a,b,0,None,None,No,398.582358171926,0,399,2829,0,0,14.5
12,6,29,SNR11,a,b,1.00947986608298,b,HIT,No,412.085110671613,413.094814056237,413,2843,414,2844,13.5
12,6,30,SNR07,a,b,0,None,None,No,426.587929599642,0,427,2857,0,0,14.5
12,6,31,SNR11,a,b,0,None,None,No,440.590750380823,0,441,2871,0,0,14
12,6,32,SNR07,a,b,0.916782678681557,b,HIT,No,453.593580285209,454.510524330592,454,2884,455,2885,13
12,6,33,SNR07,a,b,0,None,None,No,467.096430574257,0,468,2898,0,0,13.5
12,0,0,None,None,None,0,None,None,No,0,0,0,0,0,0,0
12,0,0,None,None,None,0,None,None,No,0,0,0,0,0,0,0
12,0,0,None,None,None,0,None,None,No,0,0,0,0,0,0,0
12,0,0,None,None,None,0,None,None,No,0,0,0,0,0,0,0
12,0,0,None,None,None,0,None,None,No,0,0,0,0,0,0,0
12,0,0,None,None,None,0,None,None,No,0,0,0,0,0,0,0
12,0,0,None,None,None,0,None,None,No,0,0,0,0,0,0,0
12,0,0,None,None,None,0,None,None,No,0,0,0,0,0,0,0
12,0,0,None,None,None,0,None,None,No,0,0,0,0,0,0,0
12,0,0,None,None,None,0,None,None,No,0,0,0,0,0,0,0
12,0,0,None,None,None,0,None,None,No,0,0,0,0,0,0,0
12,0,0,None,None,None,0,None,None,No,0,0,0,0,0,0,0
12,0,0,None,None,None,0,None,None,No,0,0,0,0,0,0,0
12,0,0,None,None,None,0,None,None,No,0,0,0,0,0,0,0
12,0,0,None,None,None,0,None,None,No,0,0,0,0,0,0,0
12,0,0,None,None,None,0,None,None,No,0,0,0,0,0,0,0
12,0,0,None,None,None,0,None,None,No,0,0,0,0,0,0,0
12,0,0,None,None,None,0,None,None,No,0,0,0,0,0,0,0
12,0,0,None,None,None,0,None,None,No,0,0,0,0,0,0,0
12,0,0,None,None,None,0,None,None,No,0,0,0,0,0,0,0
12,0,0,None,None,None,0,None,None,No,0,0,0,0,0,0,0
