subject,block,trial,SNR,stim,correct_resp,RT,response,status,IsDouble,time_stim,time_resp,volume_stim,volume_stim_global,volume_resp,volume_resp_global,ISI
10,1,1,catch,catch,None,0,None,None,No,19.0656843554156,0,20,20,0,0,14
10,1,2,SNR11,a,b,0,None,None,No,32.0734689292726,0,33,33,0,0,13
10,1,3,SNR07,a,b,0.951363875586139,b,HIT,No,46.0773385509887,47.0297601364816,47,47,48,48,14
10,1,4,SNR07,a,b,0.233652394899764,b,HIT,No,59.5827194719547,59.8165996593661,60,60,60,60,13.5
10,1,4,SNR07,a,b,1.29056944706554,b,HIT,No,0,60.8756064726144,0,0,61,61,13.5
10,1,5,SNR09,a,b,0.800633371517506,b,HIT,No,73.5903478126502,74.3917560778406,74,74,75,75,14
10,1,6,SNR09,a,b,0.879953916919476,b,HIT,No,86.59752570007,87.4777034181421,87,87,88,88,13
10,1,7,SNR11,a,b,0.972460769226018,b,HIT,No,101.600859624504,102.573584108465,102,102,103,103,15
10,1,8,catch,catch,None,0,None,None,No,116.604942213687,0,117,117,0,0,15
10,1,9,SNR07,a,b,0.845896798303329,b,HIT,No,131.107417996122,131.953497826706,132,132,132,132,14.5
10,1,10,SNR11,a,b,0.960976776567804,b,HIT,No,145.610360767458,146.571603539536,146,146,147,147,14.5
10,1,11,SNR09,a,b,0.803944203094034,b,HIT,No,160.113305249377,160.917396277431,161,161,161,161,14.5
10,1,12,SNR09,a,b,0.80767013591776,b,HIT,No,173.616228919214,174.424090070128,174,174,175,175,13.5
10,1,13,SNR07,a,b,0.762388748019475,b,HIT,No,188.119230135438,188.881812464327,189,189,189,189,14.5
10,1,14,SNR07,a,b,0.849519811106802,b,HIT,No,202.122264422915,202.972431689331,203,203,204,204,14
10,1,15,SNR11,a,b,0.872077256728517,b,HIT,No,217.125129077671,217.997327785726,218,218,219,219,15
10,1,16,SNR11,a,b,1.03002983825354,b,HIT,No,230.127860307027,231.158054931352,231,231,232,232,13
10,1,17,SNR11,a,b,0.866631333644364,b,HIT,No,244.130791389386,244.997582662453,245,245,246,246,14
10,1,18,catch,catch,None,0,None,None,No,257.133685979328,0,258,258,0,0,13
10,1,19,SNR11,a,b,0,None,None,No,271.636939506406,0,272,272,0,0,14.5
10,1,20,SNR11,a,b,1.40199961340841,b,HIT,No,285.639662467948,287.041814608257,286,286,288,288,14
10,1,21,SNR09,a,b,0.927345877982589,b,HIT,No,300.642843010191,301.570513898764,301,301,302,302,15
10,1,22,SNR09,a,b,0.82805371683844,b,HIT,No,314.645859336556,315.474160802696,315,315,316,316,14
10,1,23,SNR07,a,b,0.878860284788971,b,HIT,No,327.648859697489,328.527911567469,328,328,329,329,13
10,1,24,SNR11,a,b,0,None,None,No,341.151815298192,0,342,342,0,0,13.5
10,1,25,SNR07,a,b,0.785237277688793,b,HIT,No,354.154894916093,354.940307243346,355,355,355,355,13
10,1,26,SNR07,a,b,0.934943428200313,b,HIT,No,367.658049229411,368.593181676929,368,368,369,369,13.5
10,1,27,SNR09,a,b,0.830713386843854,b,HIT,No,382.160787301095,382.991667754787,383,383,384,384,14.5
10,1,28,SNR11,a,b,0,None,None,No,395.663512258316,0,396,396,0,0,13.5
10,1,29,SNR09,a,b,0.940122215386509,b,HIT,No,409.166933707533,410.107227266222,410,410,411,411,13.5
10,1,30,SNR07,a,b,0.862991785214035,b,HIT,No,424.1697496107,425.032921577225,425,425,426,426,15
10,1,31,SNR09,a,b,0.978748298683058,b,HIT,No,439.172735431685,440.15163711256,440,440,441,441,15
10,1,32,SNR07,a,b,0.754361271508969,b,HIT,No,454.175653684679,454.930225072685,455,455,455,455,15
10,1,33,SNR09,a,b,0.862293297539509,b,HIT,No,467.178606434411,468.041040569875,468,468,469,469,13
10,2,1,SNR07,a,b,0.225752641850704,b,HIT,No,19.563435225104,19.7901839959083,20,508,20,508,14.5
10,2,2,SNR07,a,b,0.852564932269161,b,HIT,No,32.5711947104241,33.4240518671288,33,521,34,522,13
10,2,3,SNR07,a,b,0.814680101198974,b,HIT,No,45.5750047468652,46.3897986017702,46,534,47,535,13
10,2,4,SNR11,a,b,0,None,None,No,58.5787101527037,0,59,547,0,0,13
10,2,5,SNR11,a,b,9.40788601137319,b,FA,No,71.587851503231,80.9956029488154,72,560,82,570,13
10,2,6,SNR09,a,b,1.27842231876275,b,HIT,No,84.5911204255472,85.8710668729249,85,573,86,574,13
10,2,7,SNR11,a,b,0.989306296252835,b,HIT,No,99.0940455208694,100.08359899623,100,588,101,589,14.5
10,2,8,SNR11,a,b,0,None,None,No,114.097089786742,0,115,603,0,0,15
10,2,9,SNR09,a,b,0.859567485029402,b,HIT,No,128.600071616369,129.459848932796,129,617,130,618,14.5
10,2,10,SNR07,a,b,0.848436442467573,b,HIT,No,142.603144106845,143.45175730946,143,631,144,632,14
10,2,11,SNR11,a,b,0.926936193578513,b,HIT,No,156.606116528271,157.533383149284,157,645,158,646,14
10,2,12,SNR07,a,b,0.791881463506797,b,HIT,No,171.609239480918,172.40131965704,172,660,173,661,15
10,2,13,SNR07,a,b,0.749228384942398,b,HIT,No,186.112271772716,186.861681479357,187,675,187,675,14.5
10,2,14,SNR09,a,b,0.920929199579405,b,HIT,No,199.615377619543,200.536456209955,200,688,201,689,13.5
10,2,14,SNR09,a,b,10.4707453405172,b,FA,No,0,210.088739010223,0,0,211,699,13.5
10,2,15,SNR09,a,b,0,None,None,No,213.118282758074,0,214,702,0,0,13.5
10,2,16,SNR11,a,b,1.02645671742721,b,HIT,No,226.621400293878,227.648042039265,227,715,228,716,13.5
10,2,17,SNR11,a,b,1.05690336750922,b,HIT,No,241.624461095377,242.681549490845,242,730,243,731,15
10,2,18,SNR11,a,b,0.890825236101591,b,HIT,No,255.627318052514,256.518316057405,256,744,257,745,14
10,2,19,SNR09,a,b,1.03941779769411,b,HIT,No,269.630328106745,270.669941480988,270,758,271,759,14
10,2,20,SNR09,a,b,1.0002967859873,b,HIT,No,284.633223837075,285.6336982385,285,773,286,774,15
10,2,21,SNR09,a,b,0,None,None,No,299.636152638658,0,300,788,0,0,15
10,2,22,SNR07,a,b,0.99472827118916,b,HIT,No,313.139204317053,314.134114765231,314,802,315,803,13.5
10,2,22,SNR07,a,b,12.5264584280103,b,FA,No,0,325.668403952813,0,0,326,814,13.5
10,2,23,catch,catch,None,0,None,None,No,326.143002949614,0,327,815,0,0,13
10,2,24,SNR09,a,b,0.963546070821394,b,HIT,No,340.145926619451,341.109616664262,341,829,342,830,14
10,2,25,SNR11,a,b,0,None,None,No,354.649011939293,0,355,843,0,0,14.5
10,2,26,SNR09,a,b,0.935766503267587,b,HIT,No,369.15206618356,370.088029118668,370,858,371,859,14.5
10,2,26,SNR09,a,b,12.5164130348621,b,FA,No,0,381.671266041696,0,0,382,870,14.5
10,2,27,SNR07,a,b,0.98957856389643,b,HIT,No,384.155025490524,385.144764278941,385,873,386,874,15
10,2,28,SNR09,a,b,0.863329910269385,b,HIT,No,397.157949160361,398.021434163403,398,886,399,887,13
10,2,29,SNR07,a,b,0.860959898825968,b,HIT,No,410.661024501807,411.522159165099,411,899,412,900,13.5
10,2,30,catch,catch,None,0,None,None,No,424.664151445812,0,425,913,0,0,14
10,2,31,SNR07,a,b,0.906519826501608,b,HIT,No,438.667015530374,439.573706700179,439,927,440,928,14
10,2,32,catch,catch,None,0,None,None,No,453.670113679582,0,454,942,0,0,15
10,2,33,SNR11,a,b,1.31262996859914,b,HIT,No,467.173034783546,468.485912786544,468,956,469,957,13.5
10,3,1,catch,catch,None,11.246277915985,b,FA,No,20.0071587859201,31.2545009690447,21,996,32,1007,15
10,3,2,SNR11,a,b,1.11627253905681,b,HIT,No,34.0111147920303,35.1274777068393,35,1010,36,1011,14
10,3,3,SNR11,a,b,0.855015055973126,b,HIT,No,48.0137992654761,48.8692302779867,49,1024,49,1024,14
10,3,4,SNR11,a,b,0,None,None,No,63.0190111239151,0,64,1039,0,0,15
10,3,5,SNR07,a,b,0.847484788650036,b,HIT,No,76.0217962366054,76.8696898543667,77,1052,77,1052,13
10,3,6,SNR07,a,b,1.01584911297687,b,HIT,No,89.5251452711814,90.5411534682907,90,1065,91,1066,13.5
10,3,7,SNR09,a,b,0,None,None,No,102.528236292963,0,103,1078,0,0,13
10,3,8,SNR07,a,b,0.765108573494217,b,HIT,No,117.031304221888,117.796628043624,118,1093,118,1093,14.5
10,3,9,SNR09,a,b,0.945771982833321,b,HIT,No,130.034382699401,130.980386466103,131,1106,131,1106,13
10,3,10,SNR07,a,b,0.796403387181272,b,HIT,No,144.037408719065,144.834074110398,145,1120,145,1120,14
10,3,11,SNR07,a,b,0.961116189004315,b,HIT,No,157.540413356453,158.501789839029,158,1133,159,1134,13.5
10,3,12,SNR09,a,b,0,None,None,No,172.543539445167,0,173,1148,0,0,15
10,3,13,SNR07,a,b,0.846408832534507,b,HIT,No,187.546568885995,188.39331128203,188,1163,189,1164,15
10,3,14,SNR09,a,b,0,None,None,No,201.549686991993,0,202,1177,0,0,14
10,3,15,SNR11,a,b,0,None,None,No,215.052827620654,0,216,1191,0,0,13.5
10,3,16,catch,catch,None,0,None,None,No,229.056526184165,0,230,1205,0,0,14
10,3,17,SNR09,a,b,5.46980081412221,b,FA,No,242.559015366159,248.028980396159,243,1218,249,1224,13.5
10,3,18,SNR11,a,b,1.16673670549972,b,HIT,No,257.061995200107,258.228896691677,258,1233,259,1234,14.5
10,3,19,SNR07,a,b,0.845176073062248,b,HIT,No,270.0650374703,270.910608117624,271,1246,271,1246,13
10,3,20,SNR09,a,b,1.54988057286209,b,HIT,No,284.56805237118,286.118196658777,285,1260,287,1262,14.5
10,3,21,SNR11,a,b,0.97262498510463,b,HIT,No,298.071069552837,299.043879280803,299,1274,300,1275,13.5
10,3,22,catch,catch,None,0,None,None,No,311.07393449269,0,312,1287,0,0,13
10,3,23,SNR09,a,b,0,None,None,No,325.576886672228,0,326,1301,0,0,14.5
10,3,24,SNR09,a,b,0,None,None,No,339.079832864729,0,340,1315,0,0,13.5
10,3,25,SNR11,a,b,0,None,None,No,352.082905925399,0,353,1328,0,0,13
10,3,26,SNR11,a,b,9.40726278930924,b,FA,No,365.085872644885,374.493310198661,366,1341,375,1350,13
10,3,27,SNR11,a,b,0,None,None,No,379.588934016578,0,380,1355,0,0,14.5
10,3,28,SNR07,a,b,0.885641032073181,b,HIT,No,394.092021617196,394.977937767884,395,1370,395,1370,14.5
10,3,29,SNR09,a,b,0.955373194836284,b,HIT,No,408.095002876629,409.050696235408,409,1384,410,1385,14
10,3,30,SNR07,a,b,0.815194701301152,b,HIT,No,422.097999531301,422.913370707651,423,1398,423,1398,14
10,3,31,SNR09,a,b,11.2228044536714,b,FA,No,437.100969386853,448.323931499171,438,1413,449,1424,15
10,3,32,SNR07,a,b,0.84446276034214,b,HIT,No,452.104016218599,452.948749821102,453,1428,453,1428,15
10,3,33,SNR11,a,b,1.01522760149601,b,HIT,No,467.106978376532,468.122438332091,468,1443,469,1444,15
10,4,1,SNR11,a,b,0,None,None,No,18.5072309154636,0,19,1480,0,0,13.5
10,4,2,SNR09,a,b,0,None,None,No,33.5102327018815,0,34,1495,0,0,15
10,4,3,SNR09,a,b,1.10745420344028,b,HIT,No,47.0132889418282,48.1208894000361,48,1509,49,1510,13.5
10,4,4,SNR11,a,b,0.867110581719317,b,HIT,No,61.5160848882049,62.383551841185,62,1523,63,1524,14.5
10,4,5,SNR11,a,b,1.34290698595942,b,HIT,No,74.5190849640407,75.8622642176453,75,1536,76,1537,13
10,4,6,SNR09,a,b,0.87761384066107,b,HIT,No,88.5220910269137,89.3999771352198,89,1550,90,1551,14
10,4,7,SNR07,a,b,0.853520007252882,b,HIT,No,101.525077418093,102.378755939283,102,1563,103,1564,13
10,4,8,SNR07,a,b,0.806187916561612,b,HIT,No,115.52805069481,116.334437038891,116,1577,117,1578,14
10,4,9,SNR09,a,b,0.945931066964476,b,HIT,No,129.030988334401,129.977148619361,130,1591,130,1591,13.5
10,4,10,SNR11,a,b,1.01302864825811,b,HIT,No,144.033718138271,145.046927538033,145,1606,146,1607,15
10,4,10,SNR11,a,b,6.05479250924691,b,FA,No,0,150.090921427834,0,0,151,1612,15
10,4,11,SNR07,a,b,0.888610887626783,b,HIT,No,158.536690844794,159.42551726576,159,1620,160,1621,14.5
10,4,12,SNR07,a,b,1.24144694715142,b,HIT,No,172.039617650698,173.281258463817,173,1634,174,1635,13.5
10,4,12,SNR07,a,b,9.24035445540903,b,FA,No,0,181.285373268962,0,0,182,1643,13.5
10,4,13,SNR07,a,b,0.771422046780572,b,HIT,No,185.042484016036,185.814092801358,186,1647,186,1647,13
10,4,13,SNR07,a,b,6.28917760346303,b,FA,No,0,191.333863993901,0,0,192,1653,13
10,4,14,SNR11,a,b,0,None,None,No,200.045311893278,0,201,1662,0,0,15
10,4,15,catch,catch,None,0,None,None,No,214.048086457379,0,215,1676,0,0,14
10,4,16,SNR11,a,b,4.08378972612991,b,FA,No,227.051022671484,231.13503591367,228,1689,232,1693,13
10,4,17,SNR09,a,b,3.51286699825323,b,FA,No,240.053987110194,243.567036570534,241,1702,244,1705,13
10,4,18,SNR07,a,b,0.897529292291438,b,HIT,No,254.056985190351,254.954717471714,255,1716,255,1716,14
10,4,19,SNR09,a,b,0.892317148756774,b,HIT,No,268.559805084876,269.452276756212,269,1730,270,1731,14.5
10,4,20,SNR07,a,b,0.898834181307393,b,HIT,No,283.062859899338,283.961929570775,284,1745,284,1745,14.5
10,4,21,SNR07,a,b,1.15663856940591,b,HIT,No,298.065765608063,299.222637101727,299,1760,300,1761,15
10,4,22,SNR07,a,b,0.910578752631409,b,HIT,No,313.068748292982,313.979504090857,314,1775,314,1775,15
10,4,23,SNR09,a,b,0,None,None,No,326.071733543773,0,327,1788,0,0,13
10,4,24,SNR11,a,b,0,None,None,No,340.074629274103,0,341,1802,0,0,14
10,4,25,SNR07,a,b,0.912745204810562,b,HIT,No,353.577692641475,354.490576973627,354,1815,355,1816,13.5
10,4,26,catch,catch,None,0,None,None,No,366.58043441942,0,367,1828,0,0,13
10,4,27,SNR11,a,b,0,None,None,No,380.583403419682,0,381,1842,0,0,14
10,4,28,SNR09,a,b,0.907061510819403,b,HIT,No,395.086407201779,395.993876971517,396,1857,397,1858,14.5
10,4,29,SNR11,a,b,0.885946085874821,b,HIT,No,409.589372780876,410.475526132277,410,1871,411,1872,14.5
10,4,30,catch,catch,None,0,None,None,No,424.592102584746,0,425,1886,0,0,15
10,4,31,SNR09,a,b,0,None,None,No,438.595125183246,0,439,1900,0,0,14
10,4,32,SNR11,a,b,7.32209376384526,b,FA,No,452.098002097174,459.420322798239,453,1914,460,1921,13.5
10,4,33,SNR09,a,b,0.872285662642753,b,HIT,No,467.100982501316,467.973436941388,468,1929,468,1929,15
10,5,1,SNR09,a,b,1.06100334760959,b,HIT,No,20.0069073303573,21.0680942804408,21,1971,22,1972,15
10,5,1,SNR09,a,b,7.87307709194283,b,FA,No,0,27.8819832374362,0,0,28,1978,15
10,5,2,SNR09,a,b,0,None,None,No,33.5099088316782,0,34,1984,0,0,13.5
10,5,3,catch,catch,None,0,None,None,No,48.5126933741744,0,49,1999,0,0,15
10,5,4,SNR11,a,b,11.4462332697949,b,FA,No,63.0156404219664,74.4620484562282,64,2014,75,2025,14.5
10,5,5,SNR09,a,b,1.2141041482173,b,HIT,No,77.018549266759,78.2329869784792,78,2028,79,2029,14
10,5,6,SNR07,a,b,0.812081727050099,b,HIT,No,90.5214504139323,91.3337071905457,91,2041,92,2042,13.5
10,5,7,SNR07,a,b,1.02791014198374,b,HIT,No,105.024496960581,106.052541668353,106,2056,107,2057,14.5
10,5,8,SNR07,a,b,0.845237654015364,b,HIT,No,118.527578289064,119.373272383394,119,2069,120,2070,13.5
10,5,9,SNR07,a,b,0.924063556105466,b,HIT,No,131.530495116573,132.454791596937,132,2082,133,2083,13
10,5,10,SNR09,a,b,1.01353355506399,b,HIT,No,146.033758336949,147.047497446956,147,2097,148,2098,14.5
10,5,11,SNR09,a,b,0,None,None,No,160.036655207668,0,161,2111,0,0,14
10,5,12,SNR09,a,b,1.09639329474703,b,HIT,No,174.539509884028,175.636063688391,175,2125,176,2126,14.5
10,5,13,catch,catch,None,0,None,None,No,187.542187230049,0,188,2138,0,0,13
10,5,14,SNR07,a,b,0.922160533566057,b,HIT,No,200.545163642833,201.467482975432,201,2151,202,2152,13
10,5,15,SNR11,a,b,0.986087551011224,b,HIT,No,214.548012617253,215.534302587141,215,2165,216,2166,14
10,5,16,SNR09,a,b,1.1355391098914,b,HIT,No,227.551036071044,228.686808390291,228,2178,229,2179,13
10,5,17,SNR11,a,b,0.944468804400458,b,HIT,No,242.054053537797,242.998647214688,243,2193,244,2194,14.5
10,5,18,SNR11,a,b,0,None,None,No,257.056952974389,0,258,2208,0,0,15
10,5,19,SNR09,a,b,0,None,None,No,270.559863244666,0,271,2221,0,0,13.5
10,5,20,catch,catch,None,7.87863163698603,b,FA,No,284.562756409123,292.441577065428,285,2235,293,2243,14
10,5,21,SNR09,a,b,1.04935570926864,b,HIT,No,299.565783569175,300.615371347408,300,2250,301,2251,15
10,5,22,SNR11,a,b,0,None,None,No,313.068753709825,0,314,2264,0,0,13.5
10,5,23,SNR11,a,b,0,None,None,No,326.571537967224,0,327,2277,0,0,13.5
10,5,24,SNR09,a,b,0,None,None,No,339.574476462106,0,340,2290,0,0,13
10,5,25,SNR07,a,b,0.88598742494105,b,HIT,No,354.077376183794,354.963544645336,355,2305,355,2305,14.5
10,5,26,SNR07,a,b,1.08734973249375,b,HIT,No,368.080326367653,369.167921568672,369,2319,370,2320,14
10,5,26,SNR07,a,b,9.69449432058354,b,FA,No,0,377.776855710693,0,0,378,2328,14
10,5,27,SNR07,a,b,10.1291891441906,b,FA,No,383.083192162797,393.212534689179,384,2334,394,2344,15
10,5,28,SNR11,a,b,0,None,None,No,398.086150044276,0,399,2349,0,0,15
10,5,29,SNR07,a,b,1.02259279765167,b,HIT,No,413.089157247537,414.111980688669,414,2364,415,2365,15
10,5,30,SNR07,a,b,0,None,None,No,427.091963457406,0,428,2378,0,0,14
10,5,31,SNR11,a,b,2.87622684370763,b,HIT,No,441.094948708197,443.971407050677,442,2392,444,2394,14
10,5,32,SNR11,a,b,1.15016401630965,b,HIT,No,454.09790801516,455.248225128565,455,2405,456,2406,13
10,5,33,SNR11,a,b,0,None,None,No,467.10094971516,0,468,2418,0,0,13
10,6,1,SNR07,a,b,0.853280525765513,b,HIT,No,20.0079026040191,20.8614744989278,21,2458,21,2458,15
10,6,2,SNR07,a,b,0.874200944355835,b,HIT,No,35.0108465157439,35.8851717623956,36,2473,36,2473,15
10,6,2,SNR07,a,b,13.9589206569308,b,FA,No,0,48.9716143162034,0,0,49,2486,15
10,6,3,SNR07,a,b,0.974876111095,b,HIT,No,49.0160418385564,49.9908244378315,50,2487,50,2487,14
10,6,4,SNR11,a,b,0,None,None,No,63.0189826142141,0,64,2501,0,0,14
10,6,5,SNR07,a,b,1.23608997433439,b,HIT,No,76.0220026468406,77.2582653899642,77,2514,78,2515,13
10,6,6,SNR09,a,b,0,None,None,No,89.0249770639455,0,90,2527,0,0,13
10,6,7,SNR11,a,b,0.0518332022820687,b,HIT,No,102.027943498334,102.079954601152,103,2540,103,2540,13
10,6,8,SNR09,a,b,0,None,None,No,117.03086346191,0,118,2555,0,0,15
10,6,9,SNR07,a,b,0.870955399994273,b,HIT,No,131.033857835806,131.905103179459,132,2569,132,2569,14
10,6,10,SNR09,a,b,1.11638486727861,b,HIT,No,145.537170663062,146.653764506449,146,2583,147,2584,14.5
10,6,11,catch,catch,None,0,None,None,No,158.540032466847,0,159,2596,0,0,13
10,6,12,SNR07,a,b,0.92514663964721,b,HIT,No,173.042912801939,173.968244469546,174,2611,174,2611,14.5
10,6,13,SNR11,a,b,0.260926770552032,b,HIT,No,186.045792566837,186.30694142796,187,2624,187,2624,13
10,6,13,SNR11,a,b,7.37487234781474,b,FA,No,0,193.42265774275,0,0,194,2631,13
10,6,14,SNR11,a,b,0,None,None,No,201.048748737733,0,202,2639,0,0,15
10,6,15,SNR11,a,b,10.9622249312779,b,FA,No,216.051641331996,227.014091204814,217,2654,228,2665,15
10,6,16,SNR09,a,b,1.31330023166993,b,HIT,No,230.054552172468,231.368201647975,231,2668,232,2669,14
10,6,16,SNR09,a,b,9.50323157460844,b,FA,No,0,239.559795676675,0,0,240,2677,14
10,6,17,SNR11,a,b,2.91924513154117,b,HIT,No,244.557363228986,247.4768016563,245,2682,248,2685,14.5
10,6,18,catch,catch,None,0,None,None,No,258.560148341676,0,259,2696,0,0,14
10,6,19,catch,catch,None,0,None,None,No,273.562874154188,0,274,2711,0,0,15
10,6,20,SNR09,a,b,4.6928233670078,b,FA,No,287.565769029228,292.258838434954,288,2725,293,2730,14
10,6,20,SNR09,a,b,8.2947287273455,b,FA,No,0,295.86256128873,0,0,296,2733,14
10,6,21,SNR07,a,b,0.828735953982687,b,HIT,No,301.068692699065,301.897604843,302,2739,302,2739,13.5
10,6,22,SNR11,a,b,0,None,None,No,314.571603539536,0,315,2752,0,0,13.5
10,6,23,SNR09,a,b,0,None,None,No,328.074597628335,0,329,2766,0,0,13.5
10,6,24,SNR09,a,b,1.06097540810151,b,HIT,No,341.077588866163,342.138755859456,342,2779,343,2780,13
10,6,25,SNR09,a,b,1.04981842171401,b,HIT,No,356.080405624622,357.130419622885,357,2794,358,2795,15
10,6,25,SNR09,a,b,5.52578018222266,b,FA,No,0,361.608250764488,0,0,362,2799,15
10,6,26,SNR09,a,b,2.73769335992074,b,HIT,No,369.583393441286,372.321241893979,370,2807,373,2810,13.5
10,6,27,SNR09,a,b,0,None,None,No,384.086253249393,0,385,2822,0,0,14.5
10,6,28,SNR11,a,b,5.9652059056134,b,FA,No,398.589177489424,404.55454333446,399,2836,405,2842,14.5
10,6,29,SNR11,a,b,6.06289781723899,b,FA,No,412.092104865523,418.155168609223,413,2850,419,2856,13.5
10,6,30,SNR07,a,b,0.792898974734271,b,HIT,No,426.595116630336,427.38818723347,427,2864,428,2865,14.5
10,6,31,SNR11,a,b,0.130852970340129,b,HIT,No,440.5980568358,440.729099110554,441,2878,441,2878,14
10,6,31,SNR11,a,b,1.65653393880348,b,HIT,No,0,442.256547965576,0,0,443,2880,14
10,6,32,SNR07,a,b,0.876029271481457,b,HIT,No,453.60114130035,454.477420887005,454,2891,455,2892,13
10,6,32,SNR07,a,b,11.4409398736116,b,FA,No,0,465.043989613346,0,0,466,2903,13
10,6,33,SNR07,a,b,0,None,None,No,467.104205523013,0,468,2905,0,0,13.5
10,0,0,None,None,None,0,None,None,No,0,0,0,0,0,0,0
10,0,0,None,None,None,0,None,None,No,0,0,0,0,0,0,0
10,0,0,None,None,None,0,None,None,No,0,0,0,0,0,0,0
10,0,0,None,None,None,0,None,None,No,0,0,0,0,0,0,0
10,0,0,None,None,None,0,None,None,No,0,0,0,0,0,0,0
10,0,0,None,None,None,0,None,None,No,0,0,0,0,0,0,0
