subject,block,trial,SNR,stim,correct_resp,RT,response,status,IsDouble,time_stim,time_resp,volume_stim,volume_stim_global,volume_resp,volume_resp_global,ISI
29,1,1,catch,catch,None,0,None,None,No,19.077002136517,0,20,20,0,0,14
29,1,2,SNR11,a,b,0,None,None,No,32.084616507459,0,33,33,0,0,13
29,1,3,SNR07,a,b,0.875816589104943,b,HIT,No,46.0884080125944,46.9653763936255,47,47,47,47,14
29,1,4,SNR07,a,b,0.897233931784285,b,HIT,No,59.5935887954594,60.491039971171,60,60,61,61,13.5
29,1,5,SNR09,a,b,0.985009029012872,b,HIT,No,73.6009528512267,74.5861605928649,74,74,75,75,14
29,1,6,SNR09,a,b,0.96529827703489,b,HIT,No,86.6054083472983,87.5708597214374,87,87,88,88,13
29,1,7,SNR11,a,b,0,None,None,No,101.608510487864,0,102,102,0,0,15
29,1,8,catch,catch,None,0,None,None,No,116.612396645206,0,117,117,0,0,15
29,1,9,SNR07,a,b,0.880248707224382,b,HIT,No,131.114872712738,131.99608020121,132,132,133,133,14.5
29,1,10,SNR11,a,b,0,None,None,No,145.617674361055,0,146,146,0,0,14.5
29,1,11,SNR09,a,b,0,None,None,No,160.120606013608,0,161,161,0,0,14.5
29,1,12,SNR09,a,b,0.916850316643831,b,HIT,No,173.623596396146,174.540663386531,174,174,175,175,13.5
29,1,13,SNR07,a,b,0.937402104813373,b,HIT,No,188.126619279742,189.064196149024,189,189,190,190,14.5
29,1,14,SNR07,a,b,0.916304355894681,b,HIT,No,202.12947994314,203.045946234125,203,203,204,204,14
29,1,15,SNR11,a,b,0,None,None,No,217.132341176732,0,218,218,0,0,15
29,1,16,SNR11,a,b,0.967732720426284,b,HIT,No,230.135363490135,231.103351942565,231,231,232,232,13
29,1,17,SNR11,a,b,0,None,None,No,244.138245535808,0,245,245,0,0,14
29,1,18,catch,catch,None,0,None,None,No,257.14094283862,0,258,258,0,0,13
29,1,19,SNR11,a,b,1.2374173860153,b,HIT,No,271.64384427089,272.881469492624,272,272,273,273,14.5
29,1,20,SNR11,a,b,0,None,None,No,285.646666446192,0,286,286,0,0,14
29,1,21,SNR09,a,b,0,None,None,No,300.649568163559,0,301,301,0,0,15
29,1,22,SNR09,a,b,0,None,None,No,314.652471591508,0,315,315,0,0,14
29,1,23,SNR07,a,b,1.02834548511601,b,HIT,No,327.655380436301,328.683946301408,328,328,329,329,13
29,1,24,SNR11,a,b,0,None,None,No,341.158210024125,0,342,342,0,0,13.5
29,1,25,SNR07,a,b,1.01652906935487,b,HIT,No,354.161080665918,355.177798754582,355,355,356,356,13
29,1,26,SNR07,a,b,0.892457131383708,b,HIT,No,367.663873761325,368.55655811503,368,368,369,369,13.5
29,1,27,SNR09,a,b,0,None,None,No,382.166767781073,0,383,383,0,0,14.5
29,1,28,SNR11,a,b,0,None,None,No,395.669649256553,0,396,396,0,0,13.5
29,1,29,SNR09,a,b,1.00289259426063,b,HIT,No,409.172525315189,410.175621468717,410,410,411,411,13.5
29,1,30,SNR07,a,b,0.980663865499082,b,HIT,No,424.175420760422,425.156316694882,425,425,426,426,15
29,1,31,SNR09,a,b,0.932544336857973,b,HIT,No,439.178255194895,440.111011929029,440,440,441,441,15
29,1,32,SNR07,a,b,0.938350337470183,b,HIT,No,454.181113577517,455.119695128661,455,455,456,456,15
29,1,33,SNR09,a,b,0.921296689615701,b,HIT,No,467.184032400705,468.105630152772,468,468,469,469,13
29,2,1,SNR07,a,b,0.826601432665484,b,HIT,No,19.5084129276669,20.3351118635138,20,510,21,511,14.5
29,2,2,SNR07,a,b,0.823962859853054,b,HIT,No,32.5111019626648,33.3352846323018,33,523,34,524,13
29,2,3,SNR07,a,b,0.889467033950496,b,HIT,No,45.5143874206076,46.4039724847174,46,536,47,537,13
29,2,4,SNR11,a,b,0.98239982117957,b,HIT,No,58.5172529306547,59.4999042074047,59,549,60,550,13
29,2,5,SNR11,a,b,0,None,None,No,71.5200902160978,0,72,562,0,0,13
29,2,6,SNR09,a,b,0.844084151525749,b,HIT,No,84.5229984906964,85.3672317479469,85,575,86,576,13
29,2,7,SNR11,a,b,0,None,None,No,99.0259016335488,0,100,590,0,0,14.5
29,2,8,SNR11,a,b,0,None,None,No,114.028801925431,0,115,605,0,0,15
29,2,9,SNR09,a,b,0.944355905987322,b,HIT,No,128.531678839359,129.47625141907,129,619,130,620,14.5
29,2,10,SNR07,a,b,1.00774209439987,b,HIT,No,142.534615908755,143.542488007394,143,633,144,634,14
29,2,11,SNR11,a,b,0,None,None,No,156.537560960868,0,157,647,0,0,14
29,2,12,SNR07,a,b,0.931681348214624,b,HIT,No,171.540449278676,172.472405745503,172,662,173,663,15
29,2,13,SNR07,a,b,0.906707990521681,b,HIT,No,186.04329597232,186.95016304698,187,677,187,677,14.5
29,2,14,SNR09,a,b,0,None,None,No,199.546243590306,0,200,690,0,0,13.5
29,2,15,SNR09,a,b,0.931366030927165,b,HIT,No,213.04915329039,213.980669852531,214,704,214,704,13.5
29,2,16,SNR11,a,b,0,None,None,No,226.552050161108,0,227,717,0,0,13.5
29,2,17,SNR11,a,b,0,None,None,No,241.554931066394,0,242,732,0,0,15
29,2,18,SNR11,a,b,0,None,None,No,255.557809976001,0,256,746,0,0,14
29,2,19,SNR09,a,b,0.856427141450695,b,HIT,No,269.56070485104,270.417339258029,270,760,271,761,14
29,2,20,SNR09,a,b,0,None,None,No,284.563596019818,0,285,775,0,0,15
29,2,21,SNR09,a,b,0.962190149439266,b,HIT,No,299.566471793357,300.528805346595,300,790,301,791,15
29,2,22,SNR07,a,b,0.931149642288801,b,HIT,No,313.069274867159,314.001190565114,314,804,315,805,13.5
29,2,23,catch,catch,None,0,None,None,No,326.07230687386,0,327,817,0,0,13
29,2,24,SNR09,a,b,0,None,None,No,340.075155563184,0,341,831,0,0,14
29,2,25,SNR11,a,b,0,None,None,No,354.577987146686,0,355,845,0,0,14.5
29,2,26,SNR09,a,b,0,None,None,No,369.080852656733,0,370,860,0,0,14.5
29,2,27,SNR07,a,b,0.957167880507768,b,HIT,No,384.083716171102,385.041039429487,385,875,386,876,15
29,2,28,SNR09,a,b,0,None,None,No,397.086603063424,0,398,888,0,0,13
29,2,29,SNR07,a,b,0.922943409954314,b,HIT,No,410.58949736827,411.512610981139,411,901,412,902,13.5
29,2,30,catch,catch,None,0,None,None,No,424.5922214702,0,425,915,0,0,14
29,2,31,SNR07,a,b,0,None,None,No,438.59515340785,0,439,929,0,0,14
29,2,32,catch,catch,None,0,None,None,No,453.59775833923,0,454,944,0,0,15
29,2,33,SNR11,a,b,0,None,None,No,467.100674026351,0,468,958,0,0,13.5
29,3,1,catch,catch,None,0,None,None,No,20.0071180170477,0,21,1000,0,0,15
29,3,2,SNR11,a,b,0,None,None,No,34.0108602004004,0,35,1014,0,0,14
29,3,3,SNR11,a,b,0,None,None,No,48.0137630581558,0,49,1028,0,0,14
29,3,4,SNR11,a,b,0,None,None,No,63.016831842371,0,64,1043,0,0,15
29,3,5,SNR07,a,b,0.911912151350407,b,HIT,No,76.0218315886347,76.9338432388389,77,1056,77,1056,13
29,3,6,SNR07,a,b,0.958195085040643,b,HIT,No,89.5244983860658,90.4828628187313,90,1069,91,1070,13.5
29,3,7,SNR09,a,b,1.1556863454025,b,HIT,No,102.527549779363,103.683409748835,103,1082,104,1083,13
29,3,8,SNR07,a,b,0.994272115975036,b,HIT,No,117.030492265603,118.024904934402,118,1097,119,1098,14.5
29,3,9,SNR09,a,b,0.902974074997474,b,HIT,No,130.033386000254,130.936547383978,131,1110,131,1110,13
29,3,10,SNR07,a,b,0.826839488683618,b,HIT,No,144.036241531906,144.863263197568,145,1124,145,1124,14
29,3,11,SNR07,a,b,0.910575616566348,b,HIT,No,157.539142679079,158.449954355969,158,1137,159,1138,13.5
29,3,12,SNR09,a,b,0.920615877970704,b,HIT,No,172.54200020641,173.462775738701,173,1152,174,1153,15
29,3,13,SNR07,a,b,0.899271235015476,b,HIT,No,187.544899357905,188.444351629529,188,1167,189,1168,15
29,3,14,SNR09,a,b,0.897247046246775,b,HIT,No,201.547767433825,202.445175844985,202,1181,203,1182,14
29,3,15,SNR11,a,b,0,None,None,No,215.050614127469,0,216,1195,0,0,13.5
29,3,16,catch,catch,None,0,None,None,No,229.053721114684,0,230,1209,0,0,14
29,3,17,SNR09,a,b,0.938335512430058,b,HIT,No,242.556700378438,243.495261972791,243,1222,244,1223,13.5
29,3,18,SNR11,a,b,0,None,None,No,257.059593827992,0,258,1237,0,0,14.5
29,3,19,SNR07,a,b,0.861091328551993,b,HIT,No,270.062443657703,270.923714027172,271,1250,271,1250,13
29,3,20,SNR09,a,b,0.913808331562905,b,HIT,No,284.565316580273,285.479339589882,285,1264,286,1265,14.5
29,3,21,SNR11,a,b,0,None,None,No,298.068320077273,0,299,1278,0,0,13.5
29,3,22,catch,catch,None,0,None,None,No,311.071022226733,0,312,1291,0,0,13
29,3,23,SNR09,a,b,0,None,None,No,325.573927935459,0,326,1305,0,0,14.5
29,3,24,SNR09,a,b,1.13015961441852,b,HIT,No,339.076862153885,340.20724556945,340,1319,341,1320,13.5
29,3,25,SNR11,a,b,0.846011692396132,b,HIT,No,352.079715689858,352.925953464185,353,1332,353,1332,13
29,3,26,SNR11,a,b,0,None,None,No,365.082589752815,0,366,1345,0,0,13
29,3,27,SNR11,a,b,0,None,None,No,379.585484342757,0,380,1359,0,0,14.5
29,3,28,SNR07,a,b,0.951620462888968,b,HIT,No,394.088340444603,395.040129399831,395,1374,396,1375,14.5
29,3,29,SNR09,a,b,0,None,None,No,408.091259552888,0,409,1388,0,0,14
29,3,30,SNR07,a,b,0,None,None,No,422.094161555352,0,423,1402,0,0,14
29,3,31,SNR09,a,b,0,None,None,No,437.096999981184,0,438,1417,0,0,15
29,3,32,SNR07,a,b,1.0548261507065,b,HIT,No,452.099898847581,453.154904324294,453,1432,454,1433,15
29,3,33,SNR11,a,b,0,None,None,No,467.102707338226,0,468,1447,0,0,15
29,4,1,SNR11,a,b,0,None,None,No,18.507098630451,0,19,1514,0,0,13.5
29,4,2,SNR09,a,b,0.930985996601521,b,HIT,No,33.5099801059306,34.4411645300546,34,1529,35,1530,15
29,4,3,SNR09,a,b,0,None,None,No,47.0128567347611,0,48,1543,0,0,13.5
29,4,4,SNR11,a,b,1.13950794537959,b,HIT,No,61.5158334326421,62.655607088424,62,1557,63,1558,14.5
29,4,5,SNR11,a,b,0,None,None,No,74.5187539664121,0,75,1570,0,0,13
29,4,6,SNR09,a,b,1.19525809548213,b,HIT,No,88.5216009451536,89.7170349454809,89,1584,90,1585,14
29,4,7,SNR07,a,b,0,None,None,No,101.524536589065,0,102,1597,0,0,13
29,4,8,SNR07,a,b,0.989656680467306,b,HIT,No,115.527594254497,116.517452783659,116,1611,117,1612,14
29,4,9,SNR09,a,b,0.959479732162436,b,HIT,No,129.030490840118,129.990228014887,130,1625,130,1625,13.5
29,4,10,SNR11,a,b,0.89345040936314,b,HIT,No,144.033403106075,144.927012029383,145,1640,145,1640,15
29,4,11,SNR07,a,b,0.914109964200179,b,HIT,No,158.536284866652,159.450577007838,159,1654,160,1655,14.5
29,4,12,SNR07,a,b,0.983789098914713,b,HIT,No,172.039274964092,173.023328347937,173,1668,174,1669,13.5
29,4,13,SNR07,a,b,1.01558055159694,b,HIT,No,185.042215169556,186.058014960751,186,1681,187,1682,13
29,4,14,SNR11,a,b,0,None,None,No,200.045130001386,0,201,1696,0,0,15
29,4,15,catch,catch,None,0,None,None,No,214.047780833384,0,215,1710,0,0,14
29,4,16,SNR11,a,b,0,None,None,No,227.050657462215,0,228,1723,0,0,13
29,4,17,SNR09,a,b,0,None,None,No,240.053591110447,0,241,1736,0,0,13
29,4,18,SNR07,a,b,0.925075650491635,b,HIT,No,254.056527894747,254.981770612086,255,1750,255,1750,14
29,4,19,SNR09,a,b,0,None,None,No,268.55942619095,0,269,1764,0,0,14.5
29,4,20,SNR07,a,b,0.86949741387798,b,HIT,No,283.062339882392,283.932028026176,284,1779,284,1779,14.5
29,4,21,SNR07,a,b,1.1903766644682,b,HIT,No,298.065154645171,299.255786186366,299,1794,300,1795,15
29,4,22,SNR07,a,b,1.10620547852886,b,HIT,No,313.067961140137,314.174405815067,314,1809,315,1810,15
29,4,23,SNR09,a,b,0.872115744830808,b,HIT,No,326.070868559445,326.943168191841,327,1822,327,1822,13
29,4,24,SNR11,a,b,0,None,None,No,340.073801637483,0,341,1836,0,0,14
29,4,25,SNR07,a,b,1.04175331239821,b,HIT,No,353.576759233864,354.618691302089,354,1849,355,1850,13.5
29,4,26,catch,catch,None,0,None,None,No,366.579568864898,0,367,1862,0,0,13
29,4,27,SNR11,a,b,0,None,None,No,380.582382487289,0,381,1876,0,0,14
29,4,28,SNR09,a,b,0,None,None,No,395.085222053508,0,396,1891,0,0,14.5
29,4,29,SNR11,a,b,0,None,None,No,409.588034820608,0,410,1905,0,0,14.5
29,4,30,catch,catch,None,0,None,None,No,424.590728987353,0,425,1920,0,0,15
29,4,31,SNR09,a,b,0,None,None,No,438.593577676676,0,439,1934,0,0,14
29,4,32,SNR11,a,b,0,None,None,No,452.096435774201,0,453,1948,0,0,13.5
29,4,33,SNR09,a,b,0,None,None,No,467.099298433278,0,468,1963,0,0,15
29,5,1,SNR09,a,b,0.870252065680688,b,HIT,No,20.0079103016383,20.878343118813,21,2005,21,2005,15
29,5,2,SNR09,a,b,0.907197502092458,b,HIT,No,33.5107016864629,34.4181489335376,34,2018,35,2019,13.5
29,5,3,catch,catch,None,0,None,None,No,48.5132972096415,0,49,2033,0,0,15
29,5,4,SNR11,a,b,0.922122045463766,b,HIT,No,63.0164059074381,63.9386499744268,64,2048,64,2048,14.5
29,5,4,SNR11,a,b,12.712787285127,b,FA,No,0,75.7315751780858,0,0,76,2060,14.5
29,5,5,SNR09,a,b,1.26355108853022,b,HIT,No,77.0193595124613,78.2831309809789,78,2062,79,2063,14
29,5,6,SNR07,a,b,0.924596117329202,b,HIT,No,90.5221794069868,91.4469713859535,91,2075,92,2076,13.5
29,5,7,SNR07,a,b,0.831529904680792,b,HIT,No,105.025031517474,105.856730769779,106,2090,106,2090,14.5
29,5,8,SNR07,a,b,0.889281720883446,b,HIT,No,118.527992820117,119.417453867027,119,2103,120,2104,13.5
29,5,9,SNR07,a,b,0.850045244893408,b,HIT,No,131.530902805298,132.381207488472,132,2116,133,2117,13
29,5,10,SNR09,a,b,0.932913537486456,b,HIT,No,146.033695045413,146.966779641108,147,2131,147,2131,14.5
29,5,11,SNR09,a,b,0.897877965937369,b,HIT,No,160.036536322214,160.93457536796,161,2145,161,2145,14
29,5,12,SNR09,a,b,0,None,None,No,174.539332838785,0,175,2159,0,0,14.5
29,5,13,catch,catch,None,0,None,None,No,187.542095713909,0,188,2172,0,0,13
29,5,14,SNR07,a,b,0.875495569882332,b,HIT,No,200.544974908612,201.420915229825,201,2185,202,2186,13
29,5,15,SNR11,a,b,0,None,None,No,214.547859235062,0,215,2199,0,0,14
29,5,16,SNR09,a,b,0,None,None,No,227.550739570154,0,228,2212,0,0,13
29,5,17,SNR11,a,b,0,None,None,No,242.053567447395,0,243,2227,0,0,14.5
29,5,18,SNR11,a,b,1.11806180787971,b,HIT,No,257.056417847301,258.174653279271,258,2242,259,2243,15
29,5,19,SNR09,a,b,0,None,None,No,270.559167607962,0,271,2255,0,0,13.5
29,5,20,catch,catch,None,0,None,None,No,284.561822431319,0,285,2269,0,0,14
29,5,21,SNR09,a,b,0,None,None,No,299.564713600097,0,300,2284,0,0,15
29,5,22,SNR11,a,b,1.04757100198185,b,HIT,No,313.067550600443,314.115316038588,314,2298,315,2299,13.5
29,5,23,SNR11,a,b,0,None,None,No,326.570328585708,0,327,2311,0,0,13.5
29,5,24,SNR09,a,b,1.23544993155519,b,HIT,No,339.573145344166,340.808773461346,340,2324,341,2325,13
29,5,25,SNR07,a,b,0.888304123247508,b,HIT,No,354.076036227847,354.964511409297,355,2339,355,2339,14.5
29,5,26,SNR07,a,b,0,None,None,No,368.07896417414,0,369,2353,0,0,14
29,5,27,SNR07,a,b,1.00093654368538,b,HIT,No,383.081857338597,384.083009700711,384,2368,385,2369,15
29,5,28,SNR11,a,b,0,None,None,No,398.084710304375,0,399,2383,0,0,15
29,5,29,SNR07,a,b,0,None,None,No,413.087624280914,0,414,2398,0,0,15
29,5,30,SNR07,a,b,0.93024274869822,b,HIT,No,427.090460996163,428.02095006868,428,2412,429,2413,14
29,5,31,SNR11,a,b,0,None,None,No,441.093312821554,0,442,2426,0,0,14
29,5,32,SNR11,a,b,0,None,None,No,454.096110478513,0,455,2439,0,0,13
29,5,33,SNR11,a,b,0,None,None,No,467.09895403609,0,468,2452,0,0,13
29,6,1,SNR07,a,b,0.900318396335933,b,HIT,No,20.0067285745321,20.9072371305784,21,2491,21,2491,15
29,6,2,SNR07,a,b,0.843064929693355,b,HIT,No,35.0096379895187,35.852894219316,36,2506,36,2506,15
29,6,3,SNR07,a,b,0.903111491745221,b,HIT,No,49.0124541777831,49.9157176262367,50,2520,50,2520,14
29,6,4,SNR11,a,b,0.899694318984984,b,HIT,No,63.0153681543219,63.9152771513563,64,2534,64,2534,14
29,6,5,SNR07,a,b,0.866323713969905,b,HIT,No,76.0184514784846,76.8850095421969,77,2547,77,2547,13
29,6,6,SNR09,a,b,0.943241461776779,b,HIT,No,89.0212870533456,89.9647637201511,90,2560,90,2560,13
29,6,7,SNR11,a,b,0,None,None,No,102.024198178914,0,103,2573,0,0,13
29,6,8,SNR09,a,b,0.909866010100814,b,HIT,No,117.027077943812,117.93716034255,118,2588,118,2588,15
29,6,9,SNR07,a,b,0.772678184206598,b,HIT,No,131.029973103948,131.802885067702,132,2602,132,2602,14
29,6,10,SNR09,a,b,0.90360670525115,b,HIT,No,145.532740540624,146.436564489799,146,2616,147,2617,14.5
29,6,11,catch,catch,None,0,None,None,No,158.535360011951,0,159,2629,0,0,13
29,6,12,SNR07,a,b,0.829792238408118,b,HIT,No,173.038213833021,173.86821162637,174,2644,174,2644,14.5
29,6,13,SNR11,a,b,0,None,None,No,186.041050833367,0,187,2657,0,0,13
29,6,14,SNR11,a,b,0,None,None,No,201.044031522606,0,202,2672,0,0,15
29,6,15,SNR11,a,b,0,None,None,No,216.046974008846,0,217,2687,0,0,15
29,6,16,SNR09,a,b,0.933846660002018,b,HIT,No,230.049825834237,230.983865219818,231,2701,231,2701,14
29,6,17,SNR11,a,b,1.0599285318749,b,HIT,No,244.552606670472,245.612678606149,245,2715,246,2716,14.5
29,6,18,catch,catch,None,0,None,None,No,258.555270616933,0,259,2729,0,0,14
29,6,19,catch,catch,None,0,None,None,No,273.557883816126,0,274,2744,0,0,15
29,6,20,SNR09,a,b,1.1056164681213,b,HIT,No,287.560813758097,288.666644904262,288,2758,289,2759,14
29,6,21,SNR07,a,b,0,None,None,No,301.063744270263,0,302,2772,0,0,13.5
29,6,22,SNR11,a,b,0,None,None,No,314.566576994154,0,315,2785,0,0,13.5
29,6,23,SNR09,a,b,0.95236143002694,b,HIT,No,328.06945875473,329.021950474088,329,2799,330,2800,13.5
29,6,24,SNR09,a,b,0,None,None,No,341.072278649256,0,342,2812,0,0,13
29,6,25,SNR09,a,b,0,None,None,No,356.075070319177,0,357,2827,0,0,15
29,6,26,SNR09,a,b,0,None,None,No,369.577859138129,0,370,2840,0,0,13.5
29,6,27,SNR09,a,b,1.13467526594468,b,HIT,No,384.080793641652,385.215679309199,385,2855,386,2856,14.5
29,6,28,SNR11,a,b,0,None,None,No,398.583583030798,0,399,2869,0,0,14.5
29,6,29,SNR11,a,b,0,None,None,No,412.086606484589,0,413,2883,0,0,13.5
29,6,30,SNR07,a,b,0,None,None,No,426.589427804599,0,427,2897,0,0,14.5
29,6,31,SNR11,a,b,0,None,None,No,440.592339500362,0,441,2911,0,0,14
29,6,32,SNR07,a,b,0,None,None,No,453.595222971521,0,454,2924,0,0,13
29,6,33,SNR07,a,b,0,None,None,No,467.098028896293,0,468,2938,0,0,13.5
29,0,0,None,None,None,0,None,None,No,0,0,0,0,0,0,0
29,0,0,None,None,None,0,None,None,No,0,0,0,0,0,0,0
29,0,0,None,None,None,0,None,None,No,0,0,0,0,0,0,0
29,0,0,None,None,None,0,None,None,No,0,0,0,0,0,0,0
29,0,0,None,None,None,0,None,None,No,0,0,0,0,0,0,0
29,0,0,None,None,None,0,None,None,No,0,0,0,0,0,0,0
29,0,0,None,None,None,0,None,None,No,0,0,0,0,0,0,0
29,0,0,None,None,None,0,None,None,No,0,0,0,0,0,0,0
29,0,0,None,None,None,0,None,None,No,0,0,0,0,0,0,0
29,0,0,None,None,None,0,None,None,No,0,0,0,0,0,0,0
29,0,0,None,None,None,0,None,None,No,0,0,0,0,0,0,0
29,0,0,None,None,None,0,None,None,No,0,0,0,0,0,0,0
29,0,0,None,None,None,0,None,None,No,0,0,0,0,0,0,0
29,0,0,None,None,None,0,None,None,No,0,0,0,0,0,0,0
29,0,0,None,None,None,0,None,None,No,0,0,0,0,0,0,0
29,0,0,None,None,None,0,None,None,No,0,0,0,0,0,0,0
29,0,0,None,None,None,0,None,None,No,0,0,0,0,0,0,0
29,0,0,None,None,None,0,None,None,No,0,0,0,0,0,0,0
29,0,0,None,None,None,0,None,None,No,0,0,0,0,0,0,0
29,0,0,None,None,None,0,None,None,No,0,0,0,0,0,0,0
29,0,0,None,None,None,0,None,None,No,0,0,0,0,0,0,0
