subject,block,trial,SNR,stim,correct_resp,RT,response,status,IsDouble,time_stim,time_resp,volume_stim,volume_stim_global,volume_resp,volume_resp_global,ISI
9,1,1,catch,catch,None,0,None,None,No,19.0779737588092,0,20,20,0,0,14
9,1,2,SNR11,a,b,0,None,None,No,32.0856720338676,0,33,33,0,0,13
9,1,3,SNR07,a,b,1.06976572462918,b,HIT,No,46.0893863190117,47.1602607982406,47,47,48,48,14
9,1,4,SNR07,a,b,1.16128601848686,b,HIT,No,59.5945062905929,60.7559066342527,60,60,61,61,13.5
9,1,5,SNR09,a,b,1.13863851549468,b,HIT,No,73.6019642261996,74.7407629679955,74,74,75,75,14
9,1,6,SNR09,a,b,0,None,None,No,86.6064722302446,0,87,87,0,0,13
9,1,7,SNR11,a,b,0,None,None,No,101.609576401004,0,102,102,0,0,15
9,1,8,catch,catch,None,0,None,None,No,116.613475431064,0,117,117,0,0,15
9,1,9,SNR07,a,b,1.09991649415861,b,HIT,No,131.115891512539,132.216600014996,132,132,133,133,14.5
9,1,9,SNR07,a,b,12.4068413779587,b,FA,No,0,143.525665716048,0,0,144,144,14.5
9,1,10,SNR11,a,b,0,None,None,No,145.618552209968,0,146,146,0,0,14.5
9,1,11,SNR09,a,b,0,None,None,No,160.121290454646,0,161,161,0,0,14.5
9,1,12,SNR09,a,b,0,None,None,No,173.624055498741,0,174,174,0,0,13.5
9,1,13,SNR07,a,b,1.05958593760442,b,HIT,No,188.126819402436,189.186622586378,189,189,190,190,14.5
9,1,14,SNR07,a,b,1.0253938730275,b,HIT,No,202.129890216474,203.155438898898,203,203,204,204,14
9,1,15,SNR11,a,b,1.62042303734779,b,HIT,No,217.132661105122,218.753253777078,218,218,219,219,15
9,1,16,SNR11,a,b,0,None,None,No,230.135448244481,0,231,231,0,0,13
9,1,17,SNR11,a,b,0,None,None,No,244.138341726207,0,245,245,0,0,14
9,1,18,catch,catch,None,0,None,None,No,257.14089679402,0,258,258,0,0,13
9,1,19,SNR11,a,b,1.08382030819848,b,HIT,No,271.643640170501,272.727692550247,272,272,273,273,14.5
9,1,20,SNR11,a,b,0,None,None,No,285.646338073504,0,286,286,0,0,14
9,1,21,SNR09,a,b,0.958310941090531,b,HIT,No,300.649029419202,301.607536224116,301,301,302,302,15
9,1,22,SNR09,a,b,7.82361051438056,b,FA,No,314.651962244753,322.475913453849,315,315,323,323,14
9,1,23,SNR07,a,b,1.1624050366936,b,HIT,No,327.654755086116,328.81733517432,328,328,329,329,13
9,1,24,SNR11,a,b,0,None,None,No,341.157557478335,0,342,342,0,0,13.5
9,1,25,SNR07,a,b,0.975404407477981,b,HIT,No,354.160435849751,355.135997632528,355,355,356,356,13
9,1,26,SNR07,a,b,1.13259382147953,b,HIT,No,367.663167252025,368.795906474597,368,368,369,369,13.5
9,1,27,SNR09,a,b,1.29672599506375,b,HIT,No,382.16585360847,383.462741825536,383,383,384,384,14.5
9,1,28,SNR11,a,b,0,None,None,No,395.668628345971,0,396,396,0,0,13.5
9,1,29,SNR09,a,b,0,None,None,No,409.171512561942,0,410,410,0,0,13.5
9,1,30,SNR07,a,b,1.21272607375249,b,HIT,No,424.174326500717,425.387320853738,425,425,426,426,15
9,1,31,SNR09,a,b,1.35815624573297,b,HIT,No,439.177003306307,440.535338024752,440,440,441,441,15
9,1,32,SNR07,a,b,1.08404211613924,b,HIT,No,454.179699213608,455.263991077505,455,455,456,456,15
9,1,33,SNR09,a,b,0,None,None,No,467.182433894534,0,468,468,0,0,13
9,2,1,SNR07,a,b,1.01310976157401,b,HIT,No,19.5091139400018,20.5223289035418,20,504,21,505,14.5
9,2,2,SNR07,a,b,1.04127965504995,b,HIT,No,32.5117955922942,33.5531855811154,33,517,34,518,13
9,2,3,SNR07,a,b,1.09603171910385,b,HIT,No,45.5146990525266,46.6109177973502,46,530,47,531,13
9,2,4,SNR11,a,b,0,None,None,No,58.5176335886786,0,59,543,0,0,13
9,2,5,SNR11,a,b,1.15206673396824,b,HIT,No,71.5205934987466,72.6727976510026,72,556,73,557,13
9,2,6,SNR09,a,b,0,None,None,No,84.523541434607,0,85,569,0,0,13
9,2,7,SNR11,a,b,0,None,None,No,99.0264407608868,0,100,584,0,0,14.5
9,2,8,SNR11,a,b,0,None,None,No,114.029363893032,0,115,599,0,0,15
9,2,9,SNR09,a,b,0.873756785027581,b,HIT,No,128.532333353956,129.406201613154,129,613,130,614,14.5
9,2,10,SNR07,a,b,1.02768294237103,b,HIT,No,142.535148148032,143.563227379653,143,627,144,628,14
9,2,11,SNR11,a,b,0,None,None,No,156.537925308885,0,157,641,0,0,14
9,2,12,SNR07,a,b,1.07883076994949,b,HIT,No,171.540680802124,172.619879351306,172,656,173,657,15
9,2,13,SNR07,a,b,0,None,None,No,186.043425033906,0,187,671,0,0,14.5
9,2,14,SNR09,a,b,1.05907674868286,b,HIT,No,199.54623711953,200.605489489924,200,684,201,685,13.5
9,2,14,SNR09,a,b,10.5909673420592,b,FA,No,0,210.139381486564,0,0,211,695,13.5
9,2,15,SNR09,a,b,1.328158575001,b,HIT,No,213.049220265263,214.377617754215,214,698,215,699,13.5
9,2,16,SNR11,a,b,1.28113529172333,b,HIT,No,226.55197247985,227.833271419078,227,711,228,712,13.5
9,2,17,SNR11,a,b,1.80608626162029,b,HIT,No,241.554973444344,243.361269254597,242,726,244,728,15
9,2,18,SNR11,a,b,0,None,None,No,255.557745473393,0,256,740,0,0,14
9,2,19,SNR09,a,b,0,None,None,No,269.560564543972,0,270,754,0,0,14
9,2,20,SNR09,a,b,1.318097959851,b,HIT,No,284.563387035754,285.88184080063,285,769,286,770,15
9,2,21,SNR09,a,b,0,None,None,No,299.566125993182,0,300,784,0,0,15
9,2,22,SNR07,a,b,1.06740538023951,b,HIT,No,313.068820332432,314.136403330084,314,798,315,799,13.5
9,2,23,catch,catch,None,0,None,None,No,326.071928209494,0,327,811,0,0,13
9,2,24,SNR09,a,b,1.76729039933707,b,HIT,No,340.074642078107,341.842135183672,341,825,342,826,14
9,2,25,SNR11,a,b,0,None,None,No,354.577453023331,0,355,839,0,0,14.5
9,2,26,SNR09,a,b,0,None,None,No,369.080248858245,0,370,854,0,0,14.5
9,2,27,SNR07,a,b,1.27445168820486,b,HIT,No,384.083083039134,385.357712344752,385,869,386,870,15
9,2,28,SNR09,a,b,1.2627226668028,b,HIT,No,397.085860485087,398.348786143219,398,882,399,883,13
9,2,29,SNR07,a,b,1.41767147849168,b,HIT,No,410.588556820038,412.006732070549,411,895,413,897,13.5
9,2,30,catch,catch,None,0,None,None,No,424.591133270364,0,425,909,0,0,14
9,2,31,SNR07,a,b,1.22309374179531,b,HIT,No,438.593964030051,439.81723995086,439,923,440,924,14
9,2,32,catch,catch,None,0,None,None,No,453.596606053418,0,454,938,0,0,15
9,2,33,SNR11,a,b,0,None,None,No,467.099434959953,0,468,952,0,0,13.5
9,3,1,catch,catch,None,0,None,None,No,20.0072734757903,0,21,992,0,0,15
9,3,2,SNR11,a,b,0,None,None,No,34.0108506277478,0,35,1006,0,0,14
9,3,3,SNR11,a,b,0,None,None,No,48.0136292141014,0,49,1020,0,0,14
9,3,4,SNR11,a,b,0,None,None,No,63.0166050897795,0,64,1035,0,0,15
9,3,5,SNR07,a,b,0.998587043508451,b,HIT,No,76.0219501479527,77.0206198705132,77,1048,78,1049,13
9,3,6,SNR07,a,b,1.23444785646097,b,HIT,No,89.5246427766021,90.7593158622042,90,1061,91,1062,13.5
9,3,7,SNR09,a,b,0,None,None,No,102.527608103573,0,103,1074,0,0,13
9,3,8,SNR07,a,b,0.998316198336397,b,HIT,No,117.030539646174,118.029271235473,118,1089,119,1090,14.5
9,3,9,SNR09,a,b,0,None,None,No,130.033495849939,0,131,1102,0,0,13
9,3,10,SNR07,a,b,0.865226872745552,b,HIT,No,144.03634856234,144.901868803169,145,1116,145,1116,14
9,3,11,SNR07,a,b,1.17751591642991,b,HIT,No,157.539154945961,158.71686016891,158,1129,159,1130,13.5
9,3,12,SNR09,a,b,1.01137749287955,b,HIT,No,172.541941800219,173.553526560931,173,1144,174,1145,15
9,3,13,SNR07,a,b,0.983272887344356,b,HIT,No,187.544899429486,188.528897611687,188,1159,189,1160,15
9,3,14,SNR09,a,b,1.40839716964001,b,HIT,No,201.547877871066,202.956417590795,202,1173,203,1174,14
9,3,15,SNR11,a,b,0,None,None,No,215.050861301899,0,216,1187,0,0,13.5
9,3,16,catch,catch,None,0,None,None,No,229.053895052913,0,230,1201,0,0,14
9,3,17,SNR09,a,b,1.29314770270503,b,HIT,No,242.556561737446,243.849883066161,243,1214,244,1215,13.5
9,3,18,SNR11,a,b,0,None,None,No,257.059358997861,0,258,1229,0,0,14.5
9,3,19,SNR07,a,b,0.969701548579906,b,HIT,No,270.062246777584,271.032068638439,271,1242,272,1243,13
9,3,20,SNR09,a,b,1.64120284906312,b,HIT,No,284.565042612498,286.20649691992,285,1256,287,1258,14.5
9,3,21,SNR11,a,b,0,None,None,No,298.068026613532,0,299,1270,0,0,13.5
9,3,22,catch,catch,None,0,None,None,No,311.070662649795,0,312,1283,0,0,13
9,3,23,SNR09,a,b,0,None,None,No,325.57361757061,0,326,1297,0,0,14.5
9,3,24,SNR09,a,b,1.19129936972968,b,HIT,No,339.076439064541,340.2679445617,340,1311,341,1312,13.5
9,3,25,SNR11,a,b,0,None,None,No,352.079346231075,0,353,1324,0,0,13
9,3,26,SNR11,a,b,0,None,None,No,365.082187539469,0,366,1337,0,0,13
9,3,27,SNR11,a,b,1.26249316116082,b,HIT,No,379.584981663782,380.847642748947,380,1351,381,1352,14.5
9,3,28,SNR07,a,b,1.19055924966233,b,HIT,No,394.087714776657,395.278496974659,395,1366,396,1367,14.5
9,3,29,SNR09,a,b,1.45647161727902,b,HIT,No,408.090594288474,409.547870173361,409,1380,410,1381,14
9,3,30,SNR07,a,b,1.24785469242124,b,HIT,No,422.093337522405,423.3413082506,423,1394,424,1395,14
9,3,31,SNR09,a,b,1.23950353795044,b,HIT,No,437.096287453967,438.33604786718,438,1409,439,1410,15
9,3,32,SNR07,a,b,1.18976638606,b,HIT,No,452.099313222177,453.289215886124,453,1424,454,1425,15
9,3,33,SNR11,a,b,0,None,None,No,467.102111195342,0,468,1439,0,0,15
9,4,1,SNR11,a,b,0,None,None,No,18.5070617889067,0,19,1475,0,0,13.5
9,4,2,SNR09,a,b,0,None,None,No,33.5099390199225,0,34,1490,0,0,15
9,4,3,SNR09,a,b,1.04532237560306,b,HIT,No,47.0129463991705,48.0586285712005,48,1504,49,1505,13.5
9,4,4,SNR11,a,b,0,None,None,No,61.5158511423537,0,62,1518,0,0,14.5
9,4,5,SNR11,a,b,0,None,None,No,74.5188535323485,0,75,1531,0,0,13
9,4,6,SNR09,a,b,0,None,None,No,88.5217592733823,0,89,1545,0,0,14
9,4,7,SNR07,a,b,0,None,None,No,101.524693239334,0,102,1558,0,0,13
9,4,8,SNR07,a,b,1.04871848894618,b,HIT,No,115.52782506481,116.576808982024,116,1572,117,1573,14
9,4,9,SNR09,a,b,0.99082661661123,b,HIT,No,129.030776279323,130.021712944603,130,1586,131,1587,13.5
9,4,10,SNR11,a,b,0,None,None,No,144.03360846451,0,145,1601,0,0,15
9,4,11,SNR07,a,b,0.898647171135963,b,HIT,No,158.536564810826,159.435546974674,159,1615,160,1616,14.5
9,4,12,SNR07,a,b,0.981672905134474,b,HIT,No,172.039313319111,173.021484579359,173,1629,174,1630,13.5
9,4,13,SNR07,a,b,0.991817054635248,b,HIT,No,185.042077365355,186.03409912192,186,1642,187,1643,13
9,4,14,SNR11,a,b,0,None,None,No,200.044869351417,0,201,1657,0,0,15
9,4,15,catch,catch,None,0,None,None,No,214.047608593946,0,215,1671,0,0,14
9,4,16,SNR11,a,b,0,None,None,No,227.050558525507,0,228,1684,0,0,13
9,4,17,SNR09,a,b,0,None,None,No,240.05335051157,0,241,1697,0,0,13
9,4,18,SNR07,a,b,1.0711952169313,b,HIT,No,254.056090894499,255.127799576854,255,1711,256,1712,14
9,4,19,SNR09,a,b,1.17424211106299,b,HIT,No,268.558871904204,269.733364333226,269,1725,270,1726,14.5
9,4,20,SNR07,a,b,0,None,None,No,283.061647497006,0,284,1740,0,0,14.5
9,4,21,SNR07,a,b,1.12731889795032,b,HIT,No,298.064562646346,299.192096224732,299,1755,300,1756,15
9,4,22,SNR07,a,b,0,None,None,No,313.067288204066,0,314,1770,0,0,15
9,4,23,SNR09,a,b,0.979512986170448,b,HIT,No,326.070099006739,327.049811848136,327,1783,328,1784,13
9,4,24,SNR11,a,b,0,None,None,No,340.073505668789,0,341,1797,0,0,14
9,4,25,SNR07,a,b,1.10417760144628,b,HIT,No,353.576341417729,354.680645888756,354,1810,355,1811,13.5
9,4,26,catch,catch,None,0,None,None,No,366.578970896689,0,367,1823,0,0,13
9,4,27,SNR11,a,b,0,None,None,No,380.581844706502,0,381,1837,0,0,14
9,4,28,SNR09,a,b,0,None,None,No,395.084611176098,0,396,1852,0,0,14.5
9,4,29,SNR11,a,b,0,None,None,No,409.587415278918,0,410,1866,0,0,14.5
9,4,30,catch,catch,None,0,None,None,No,424.590022805163,0,425,1881,0,0,15
9,4,31,SNR09,a,b,1.06759725266056,b,HIT,No,438.592939094904,439.660745896197,439,1895,440,1896,14
9,4,31,SNR09,a,b,11.9856757116613,b,FA,No,0,450.581149062063,0,0,451,1907,14
9,4,32,SNR11,a,b,0,None,None,No,452.09575346133,0,453,1909,0,0,13.5
9,4,33,SNR09,a,b,1.05774989244674,b,HIT,No,467.098497835662,468.156439315429,468,1924,469,1925,15
9,5,1,SNR09,a,b,1.1276185382394,b,HIT,No,20.0079223637998,21.1356609292156,21,1964,22,1965,15
9,5,2,SNR09,a,b,0.93235713131071,b,HIT,No,33.5108598935037,34.443609607762,34,1977,35,1978,13.5
9,5,3,catch,catch,None,2.49250257801759,b,HIT,No,48.5135041976725,51.0068421192181,49,1992,52,1995,15
9,5,4,SNR11,a,b,0,None,None,No,63.0165728734591,0,64,2007,0,0,14.5
9,5,5,SNR09,a,b,1.01133073645178,b,HIT,No,77.0194683508865,78.0310713580091,78,2021,79,2022,14
9,5,6,SNR07,a,b,1.07444678448337,b,HIT,No,90.5223180697349,91.5969883727594,91,2034,92,2035,13.5
9,5,7,SNR07,a,b,1.04233623631808,b,HIT,No,105.025154388875,106.067837021912,106,2049,107,2050,14.5
9,5,8,SNR07,a,b,0.944112952131036,b,HIT,No,118.528228481565,119.472828099702,119,2062,120,2063,13.5
9,5,9,SNR07,a,b,1.44613759105778,b,HIT,No,131.531200365841,132.977482502689,132,2075,133,2076,13
9,5,10,SNR09,a,b,0,None,None,No,146.033947163524,0,147,2090,0,0,14.5
9,5,11,SNR09,a,b,1.11235570010649,b,HIT,No,160.036743140989,161.149213736469,161,2104,162,2105,14
9,5,12,SNR09,a,b,1.21167690508992,b,HIT,No,174.539653586175,175.751460211847,175,2118,176,2119,14.5
9,5,13,catch,catch,None,0,None,None,No,187.542253129616,0,188,2131,0,0,13
9,5,14,SNR07,a,b,0.915661094573807,b,HIT,No,200.54496984923,201.460889244567,201,2144,202,2145,13
9,5,15,SNR11,a,b,2.77372596569876,b,HIT,No,214.547746724983,217.321648882593,215,2158,218,2161,14
9,5,16,SNR09,a,b,0,None,None,No,227.550526166637,0,228,2171,0,0,13
9,5,17,SNR11,a,b,0,None,None,No,242.053345664866,0,243,2186,0,0,14.5
9,5,18,SNR11,a,b,1.02600626821186,b,HIT,No,257.056062954681,258.08244355943,258,2201,259,2202,15
9,5,19,SNR09,a,b,1.329163553135,b,HIT,No,270.558735341218,271.888130110599,271,2214,272,2215,13.5
9,5,20,catch,catch,None,0,None,None,No,284.561343722764,0,285,2228,0,0,14
9,5,21,SNR09,a,b,1.01358388317385,b,HIT,No,299.564117177314,300.577891222307,300,2243,301,2244,15
9,5,22,SNR11,a,b,0,None,None,No,313.066980295871,0,314,2257,0,0,13.5
9,5,23,SNR11,a,b,0,None,None,No,326.569771284083,0,327,2270,0,0,13.5
9,5,24,SNR09,a,b,0,None,None,No,339.572775384679,0,340,2283,0,0,13
9,5,25,SNR07,a,b,1.08967854669754,b,HIT,No,354.075430095004,355.16534698545,355,2298,356,2299,14.5
9,5,26,SNR07,a,b,1.0288931926334,b,HIT,No,368.078160499427,369.107268657597,369,2312,370,2313,14
9,5,27,SNR07,a,b,1.07769692653528,b,HIT,No,383.081119554195,384.159101295809,384,2327,385,2328,15
9,5,28,SNR11,a,b,1.18798137383601,b,HIT,No,398.083846822516,399.271971886841,399,2342,400,2343,15
9,5,29,SNR07,a,b,1.19291674304986,b,HIT,No,413.086681288505,414.279777074467,414,2357,415,2358,15
9,5,30,SNR07,a,b,1.01696773720869,b,HIT,No,427.089447900651,428.106635164997,428,2371,429,2372,14
9,5,31,SNR11,a,b,0,None,None,No,441.092382721903,0,442,2385,0,0,14
9,5,32,SNR11,a,b,0,None,None,No,454.095155036052,0,455,2398,0,0,13
9,5,33,SNR11,a,b,0,None,None,No,467.097849517853,0,468,2411,0,0,13
9,6,1,SNR07,a,b,0.90642441894488,b,HIT,No,20.0068272940087,20.9134712400917,21,2451,21,2451,15
9,6,2,SNR07,a,b,0,None,None,No,35.0097815020731,0,36,2466,0,0,15
9,6,3,SNR07,a,b,0.911262568997699,b,HIT,No,49.0127442631429,49.9242294953812,50,2480,50,2480,14
9,6,4,SNR11,a,b,0,None,None,No,63.015737529932,0,64,2494,0,0,14
9,6,5,SNR07,a,b,0.9422250187381,b,HIT,No,76.0187139758104,76.96108382544,77,2507,77,2507,13
9,6,6,SNR09,a,b,0,None,None,No,89.0215193615809,0,90,2520,0,0,13
9,6,7,SNR11,a,b,0,None,None,No,102.02435468287,0,103,2533,0,0,13
9,6,8,SNR09,a,b,0,None,None,No,117.02722250558,0,118,2548,0,0,15
9,6,9,SNR07,a,b,0.841002195556939,b,HIT,No,131.030235159181,131.871433218561,132,2562,132,2562,14
9,6,10,SNR09,a,b,0,None,None,No,145.533074329323,0,146,2576,0,0,14.5
9,6,11,catch,catch,None,0,None,None,No,158.53577878963,0,159,2589,0,0,13
9,6,12,SNR07,a,b,1.01764199913487,b,HIT,No,173.038666711903,174.056417619305,174,2604,175,2605,14.5
9,6,13,SNR11,a,b,0,None,None,No,186.041397686526,0,187,2617,0,0,13
9,6,14,SNR11,a,b,0,None,None,No,201.044163443372,0,202,2632,0,0,15
9,6,15,SNR11,a,b,0,None,None,No,216.046952293332,0,217,2647,0,0,15
9,6,16,SNR09,a,b,0.967518821600606,b,HIT,No,230.049719475678,231.01744585021,231,2661,232,2662,14
9,6,17,SNR11,a,b,0,None,None,No,244.552419802032,0,245,2675,0,0,14.5
9,6,18,catch,catch,None,0,None,None,No,258.55511029243,0,259,2689,0,0,14
9,6,19,catch,catch,None,0,None,None,No,273.557913397399,0,274,2704,0,0,15
9,6,20,SNR09,a,b,0,None,None,No,287.560623274609,0,288,2718,0,0,14
9,6,21,SNR07,a,b,0,None,None,No,301.063420535025,0,302,2732,0,0,13.5
9,6,22,SNR11,a,b,0,None,None,No,314.566148516096,0,315,2745,0,0,13.5
9,6,23,SNR09,a,b,0,None,None,No,328.068903011485,0,329,2759,0,0,13.5
9,6,24,SNR09,a,b,1.01353627144272,b,HIT,No,341.071678176636,342.085402329097,342,2772,343,2773,13
9,6,25,SNR09,a,b,1.02743091381126,b,HIT,No,356.074632669801,357.102275983246,357,2787,358,2788,15
9,6,26,SNR09,a,b,1.04543784117595,b,HIT,No,369.577539408685,370.623207325706,370,2800,371,2801,13.5
9,6,27,SNR09,a,b,0,None,None,No,384.080255700649,0,385,2815,0,0,14.5
9,6,28,SNR11,a,b,0,None,None,No,398.58301333214,0,399,2829,0,0,14.5
9,6,29,SNR11,a,b,0,None,None,No,412.085735326108,0,413,2843,0,0,13.5
9,6,30,SNR07,a,b,1.03300946903255,b,HIT,No,426.588516620913,427.621823734533,427,2857,428,2858,14.5
9,6,31,SNR11,a,b,0,None,None,No,440.591252157139,0,441,2871,0,0,14
9,6,32,SNR07,a,b,1.09511597732853,b,HIT,No,453.594027322291,454.689322342531,454,2884,455,2885,13
9,6,33,SNR07,a,b,0,None,None,No,467.096715104237,0,468,2898,0,0,13.5
9,0,0,None,None,None,0,None,None,No,0,0,0,0,0,0,0
9,0,0,None,None,None,0,None,None,No,0,0,0,0,0,0,0
9,0,0,None,None,None,0,None,None,No,0,0,0,0,0,0,0
9,0,0,None,None,None,0,None,None,No,0,0,0,0,0,0,0
9,0,0,None,None,None,0,None,None,No,0,0,0,0,0,0,0
9,0,0,None,None,None,0,None,None,No,0,0,0,0,0,0,0
9,0,0,None,None,None,0,None,None,No,0,0,0,0,0,0,0
9,0,0,None,None,None,0,None,None,No,0,0,0,0,0,0,0
9,0,0,None,None,None,0,None,None,No,0,0,0,0,0,0,0
9,0,0,None,None,None,0,None,None,No,0,0,0,0,0,0,0
9,0,0,None,None,None,0,None,None,No,0,0,0,0,0,0,0
9,0,0,None,None,None,0,None,None,No,0,0,0,0,0,0,0
9,0,0,None,None,None,0,None,None,No,0,0,0,0,0,0,0
9,0,0,None,None,None,0,None,None,No,0,0,0,0,0,0,0
9,0,0,None,None,None,0,None,None,No,0,0,0,0,0,0,0
9,0,0,None,None,None,0,None,None,No,0,0,0,0,0,0,0
9,0,0,None,None,None,0,None,None,No,0,0,0,0,0,0,0
9,0,0,None,None,None,0,None,None,No,0,0,0,0,0,0,0
9,0,0,None,None,None,0,None,None,No,0,0,0,0,0,0,0
